Time (s);Linear Acceleration x (m/s^2);Linear Acceleration y (m/s^2);Linear Acceleration z (m/s^2);Absolute acceleration (m/s^2)
0,003781917;0,370502607;0,065840379;-0,431480661;0,572523098
0,013795917;0,403111286;0,200974064;-0,549683295;0,710662373
0,023809917;0,367487125;0,035774142;-0,435485419;0,570941439
0,033823917;0,248786016;-0,076535229;0,046226333;0,264365272
0,043837917;0,095464201;-0,169220175;0,462138782;0,501319394
0,053851917;-0,100283476;-0,165558356;0,559770327;0,592291451
0,063865917;-0,392522563;0,001472767;0,639038106;0,749963887
0,073879917;-0,719201824;0,223714617;0,467716441;0,886599212
0,083893917;-0,875350841;0,390919988;0,184904162;0,976343731
0,093907917;-0,982432582;0,607955477;-0,079908634;1,158088524
0,103921917;-1,165784893;0,73089304;-0,464546081;1,452261035
0,113935917;-1,346926445;0,895818581;-0,896255368;1,849317567
0,123949917;-1,315744267;0,918275251;-1,229097594;2,021161376
0,133963917;-1,161173486;1,178549438;-1,147271658;2,013339241
0,143977917;-1,384248491;0,981316276;-0,613056003;1,804151651
0,153991917;-1,972925259;0,751636476;-0,200581716;2,120760358
0,164005917;-1,644201227;0,721346291;0,527573218;1,871382283
0,174019917;-0,491256345;0,360080895;1,364058933;1,493870081
0,184033917;-0,115865684;-0,439629779;0,802258453;0,922126794
0,194047917;0,116579849;-0,580177548;0,35566157;0,690428852
0,204061917;0,265942514;-0,227972998;0,359242989;0,501749573
0,214076917;0,341824938;-0,053622184;0,424829453;0,547904819
0,224090917;0,331616357;-0,234744805;0,270042545;0,487849883
0,234104917;0,096775713;-0,229042746;-0,066025005;0,257265271
0,244118917;-0,216710219;0,033025513;-0,436414542;0,488376551
0,254132917;-0,457462764;0,260179169;-0,708263876;0,882384893
0,264146917;-0,529493846;0,420423722;-0,759557991;1,016881596
0,274160917;-0,420195096;0,398396384;-0,575750767;0,816561414
0,284174917;-0,18661122;0,21660411;-0,357863047;0,458046993
0,294188917;0,105588335;-0,007816558;-0,074276011;0,129332598
0,304202917;0,308005374;-0,246422864;0,334414542;0,517131148
0,314216917;0,342697233;-0,391908606;0,680244604;0,856601698
0,324230917;0,310780133;-0,396760187;0,779671243;0,92838041
0,334244917;0,279536761;-0,247366458;0,618717862;0,722594463
0,344258917;0,268116472;-0,105626296;0,206048863;0,354259073
0,354272917;0,242815022;-0,003375744;-0,171157942;0,297095224
0,364286917;0,102074195;0,012416562;-0,211902511;0,235533408
0,374300917;-0,027966209;-0,019673834;0,051708097;0,061991096
0,384314917;-0,072521572;-0,029107732;0,172095251;0,189006386
0,394328917;-0,004289353;-0,039811206;0,225884957;0,229406505
0,404343208;0,175760505;-0,004895143;0,311126837;0,357373231
0,414357208;0,238315115;0,060970818;0,261710263;0,359170985
0,424372208;0,266822374;0,218617745;0,052537817;0,348924233
0,434386208;0,404434986;0,35026766;-0,158105203;0,557899943
0,444400208;0,613445427;0,403588858;-0,303005639;0,794362433
0,454414208;0,780289294;0,394003371;-0,286870247;0,919991618
0,464428208;0,811434927;0,312728097;-0,130774148;0,879390346
0,474442208;0,884944514;0,232606916;0,005578828;0,915021253
0,484456208;1,01302558;0,090008822;0,103854736;1,022305346
0,494470208;1,023652529;-0,031997426;0,051939647;1,025468704
0,504484208;0,869934858;-0,095465297;-0,052705632;0,876742929
0,514498208;0,63233113;-0,010774664;-0,132164615;0,646085317
0,524512208;0,349514611;0,164192301;-0,16701519;0,4207299
0,534526208;0,21089425;0,356102304;-0,260534388;0,489043354
0,544540208;0,210605945;0,384497699;-0,46167042;0,636657617
0,554554208;0,418297858;0,292669369;-0,567292185;0,763183386
0,564568208;0,664512378;0,141284664;-0,662652086;0,949023626
0,574582208;0,864274899;0,089777711;-0,692356526;1,111030467
0,584596208;0,967112512;0,109517472;-0,596351092;1,141461919
0,594610208;0,880394138;0,106689905;-0,19227867;0,907440169
0,604624208;0,809699181;0,118587088;0,319328726;0,878434116
0,614638208;0,821247286;-0,053807833;0,529993381;0,978894974
0,624653208;0,852321436;-0,083031632;0,426416388;0,956648848
0,634667208;0,813005343;0,047992046;0,284654737;0,862733588
0,644681208;0,716951158;0,188247307;0,078860813;0,74543614
0,654695208;0,588844108;0,322071801;-0,217290135;0,705466251
0,664709208;0,543130613;0,447138627;-0,383184414;0,801095568
0,674723208;0,561724758;0,4241981;-0,427921461;0,823769087
0,684737208;0,658222528;0,344208336;-0,424723619;0,855643867
0,694751208;0,757704277;0,322577439;-0,369873227;0,90276142
0,704765208;0,721589827;0,352391076;-0,266298573;0,846041535
0,714779208;0,392730651;0,369105196;-0,20926834;0,578160227
0,724793208;0,175684236;0,504077644;-0,262100857;0,594689903
0,734807208;0,149905177;0,50630441;-0,298249514;0,606439189
0,744821208;0,130066708;0,525506081;-0,343094149;0,640927129
0,754835208;0,168163218;0,509427408;-0,411812382;0,676302144
0,764849208;0,294865803;0,42644884;-0,450802785;0,687042652
0,774863208;0,331474306;0,42170704;-0,414017367;0,677585731
0,784877208;0,222680683;0,489599353;-0,293995079;0,612966002
0,794891208;-0,122186415;0,491370475;-0,163736656;0,532150502
0,804905208;-0,500324864;0,490401007;0,046860171;0,702149552
0,814920208;-0,797292047;0,526296917;0,33734809;1,013146972
0,824934208;-1,132521399;0,57344214;0,542595885;1,380525589
0,834948208;-1,348168539;0,635052936;0,688675704;1,641683547
0,844962208;-1,321963804;0,588206067;0,837326544;1,671732759
0,854976208;-1,141425539;0,425114797;0,952299176;1,546107555
0,864990208;-0,813353764;0,276460449;0,990642877;1,311239122
0,875004208;-0,543230454;0,107732317;0,898417084;1,055395108
0,885018208;-0,445403101;0,065849881;0,718440955;0,847866461
0,895032208;-0,446596591;0,125712651;0,565740334;0,731651769
0,905046208;-0,535610874;0,18359614;0,488289285;0,747671704
0,915060208;-0,736592467;0,220184799;0,481015348;0,906876824
0,925074208;-0,889267872;0,199394293;0,404943073;0,997263418
0,935088208;-1,046442856;0,144554427;0,277352734;1,092182756
0,945102208;-1,096176568;0,144471689;0,001950631;1,105657697
0,955116208;-0,993979445;0,152275383;-0,263260944;1,03946585
0,965130208;-0,799689259;0,084773371;-0,531634694;0,964014981
0,975144208;-0,44358966;0,021298337;-0,883666897;0,988985637
0,985158208;0,022708393;-0,042588488;-1,06435814;1,065451876
0,995173208;0,2593193;-0,125211837;-1,132666483;1,168699219
1,005187208;0,272137091;-0,13255594;-1,147241253;1,186504178
1,015201208;0,117466177;-0,05413937;-1,053879345;1,061786724
1,025215208;0,098765722;0,061957389;-0,690168498;0,699947099
1,035229208;0,085221487;-0,049409849;-0,341942248;0,355849035
1,045243208;0,092941895;-0,228736498;-0,213241523;0,326236921
1,055257208;0,286085734;-0,315459916;-0,250264338;0,493955711
1,065271208;0,451884812;-0,371619937;-0,271553466;0,645013601
1,075285208;0,491117437;-0,479541119;-0,245024648;0,728829953
1,085299208;0,354365827;-0,539329776;-0,09078504;0,651685254
1,095313208;0,210870696;-0,498526444;0,064005961;0,545061307
1,105327208;0,100632555;-0,455480265;0,053497345;0,469522256
1,115341208;0,023956335;-0,397595462;-0,064349193;0,403480948
1,125355208;0,018162621;-0,377927767;-0,112862372;0,394838186
1,135369208;0,004741507;-0,426328533;-0,066707375;0,431541857
1,145383208;0,054238261;-0,486189842;0,08723461;0,496922759
1,155397208;0,085572393;-0,611903663;0,375949654;0,723247447
1,165411208;0,18292868;-0,707237105;0,586295636;0,936690876
1,175425208;0,321498701;-0,784796913;0,752033794;1,133500082
1,185439208;0,428324042;-0,85379128;0,900584646;1,312811388
1,195453208;0,466006423;-0,896108457;0,830883497;1,307876041
1,205468208;0,532654595;-0,846816429;0,5501347;1,141694867
1,215482208;0,583543497;-0,697855833;0,059699487;0,91164127
1,225496208;0,4490848;-0,447519135;-0,347283679;0,722880687
1,235510208;0,231500331;-0,171479247;-0,518773159;0,593399634
1,245524208;0,047077249;-0,02661331;-0,435226972;0,438573885
1,255538208;0,001426428;-0,037276438;-0,094549477;0,101642369
1,265552208;0,051473112;-0,191616619;0,287507594;0,34932367
1,275566208;0,187945152;-0,404020236;0,564979611;0,719553815
1,285580208;0,356280278;-0,542360096;0,731265653;0,977670479
1,295594208;0,4144964;-0,586382028;0,699956737;1,002791395
1,305608208;0,372438109;-0,468180856;0,495326993;0,776693176
1,315622208;0,34195672;-0,272544715;0,185206463;0,474885727
1,325636208;0,349995252;-0,156965581;-0,078746792;0,391581317
1,335650208;0,378033967;-0,088802687;-0,153345569;0,417505043
1,345664208;0,349979977;-0,038418107;-0,216042339;0,413081381
1,355678208;0,305407821;-0,044657525;-0,259477211;0,403232755
1,365692208;0,225404755;0,027911684;-0,210513797;0,309681165
1,375707208;0,213410727;0,064232395;-0,051054963;0,228640653
1,385721208;0,294314118;0,024807105;0,161207736;0,336487929
1,395735208;0,413243999;-0,081433003;0,234188004;0,481919037
1,405749292;0,47128719;-0,183559741;0,260770615;0,569040515
1,415763292;0,46933707;-0,196571696;0,316573518;0,599279992
1,425777292;0,274498562;-0,169684883;0,26409885;0,417001946
1,435791292;-0,050342115;-0,052539718;0,128494903;0,1476675
1,445805292;-0,390332123;0,086394804;-0,165848086;0,432814991
1,455819292;-0,534689426;0,223970725;-0,388487839;0,697838426
1,465833292;-0,477978816;0,244404405;-0,430391325;0,688065371
1,475847292;-0,285581155;0,146712634;-0,39117288;0,506060683
1,485861292;-0,057937356;-0,02451299;-0,336911303;0,342734373
1,495875292;0,079816102;-0,109030691;-0,274051981;0,305553252
1,505889292;0,092834123;-0,114223604;-0,149881094;0,210070342
1,515903292;0,009557493;-0,061473678;-0,071675169;0,094908844
1,525917292;-0,121911303;0,02546784;-0,09871094;0,158917672
1,535931292;-0,383362096;0,135410405;-0,249367375;0,476955514
1,545945292;-0,533108558;0,288808161;-0,392894885;0,722482719
1,555959292;-0,533660828;0,307157308;-0,430627552;0,751385107
1,565974292;-0,410287428;0,251667085;-0,380983522;0,6138571
1,575988292;-0,262036538;0,129987843;-0,238393906;0,377348169
1,586002292;-0,174661082;-0,033310272;-0,024757111;0,179524323
1,596016292;-0,09060553;-0,134790454;0,224290422;0,2769188
1,606030292;-0,058646988;-0,19685704;0,408411641;0,457156682
1,616044292;-0,112391379;-0,218599327;0,549386256;0,601866053
1,626058292;-0,24207312;-0,106708762;0,463323428;0,533530462
1,636072292;-0,439066181;0,057144546;0,139803418;0,464316278
1,646086292;-0,55260164;0,281446808;-0,112126792;0,630200997
1,656100292;-0,57833604;0,413816953;-0,250688846;0,754030466
1,666114292;-0,565919112;0,422105382;-0,416086696;0,819491021
1,676128292;-0,477992119;0,386396143;-0,530838888;0,812138147
1,686142292;-0,345653841;0,29772151;-0,481041076;0,66295942
1,696156292;-0,220276966;0,144276392;-0,311178292;0,407638993
1,706170292;-0,091981892;-0,033480718;-0,056157244;0,112850622
1,716184292;-0,021519727;-0,159293065;0,073622877;0,176798493
1,726198292;-0,066797203;-0,118958825;0,05850607;0,148445373
1,736212292;-0,221827063;0,057415711;-0,209175369;0,310254967
1,746227292;-0,270807653;0,279889403;-0,550778478;0,674560446
1,756241292;-0,258136079;0,428013408;-0,841435967;0,978695152
1,766255292;-0,266610595;0,480603412;-0,82241322;0,989153352
1,776269292;-0,16793598;0,414585716;-0,317779214;0,548696126
1,786283292;-0,136503249;0,166944585;0,412822196;0,465752936
1,796297292;-0,027916216;-0,073136096;1,149706439;1,152368474
1,806311292;0,171972386;-0,344284642;1,592954037;1,638782774
1,816325292;0,325078878;-0,567391003;1,786237843;1,902170986
1,826339292;0,280662697;-0,650875209;1,7355916;1,874750194
1,836353292;0,016749861;-0,519251753;1,324486731;1,422732597
1,846367292;-0,298569575;-0,249783697;0,589925002;0,706786527
1,856381292;-0,573765637;0,050487199;-0,175818758;0,602219395
1,866395292;-0,744738954;0,3617149;-0,802553152;1,153067795
1,876409292;-0,799330386;0,629140231;-1,278456865;1,633768176
1,886423292;-0,793673644;0,79289516;-1,702433209;2,038842667
1,896437292;-0,650403192;0,821311897;-1,905643249;2,17463876
1,906451292;-0,355909638;0,708218268;-1,609387051;1,793982014
1,916466292;-0,080106416;0,427156937;-0,959716369;1,05353481
1,926480292;0,094217794;0,052402747;-0,215799095;0,241230782
1,936494292;0,167343;-0,242344723;0,55874531;0,631609821
1,946508292;0,126499175;-0,362899546;0,897846395;0,976640298
1,956522292;0,073211745;-0,299144284;0,755812265;0,816149154
1,966536292;0,000654815;-0,148227355;0,344965843;0,375463994
1,976550292;-0,142711531;-0,00442912;-0,036870788;0,147464074
1,986564292;-0,284414124;0,129594179;-0,218912737;0,381587253
1,996578292;-0,365764535;0,259546939;-0,165098473;0,477918209
2,006592292;-0,471382718;0,288482909;-0,251692813;0,607267098
2,016606292;-0,491749959;0,292689104;-0,360959732;0,676592094
2,026620292;-0,484440501;0,318486727;-0,42629535;0,719613869
2,036634292;-0,427721486;0,295393587;-0,509433986;0,727822799
2,046648292;-0,334435519;0,259366991;-0,663171319;0,786711224
2,056662292;-0,132009079;0,14956973;-0,547845515;0,583037057
2,066676292;0,098259535;-0,026759052;-0,206962198;0,230660648
2,076690292;0,268977913;-0,191734148;0,011706126;0,330527056
2,086704292;0,504687143;-0,27775283;0,199698202;0,609700844
2,096719292;0,577415835;-0,314506381;0,325066599;0,733479109
2,106733292;0,500170096;-0,308783126;0,362240857;0,690460413
2,116747292;0,402041027;-0,256962616;0,454535063;0,658990817
2,126761292;0,356590181;-0,192455548;0,613620259;0,735340409
2,136775292;0,338472291;-0,147601849;0,718176076;0,807543605
2,146789292;0,258811798;-0,104637824;0,621195912;0,681041101
2,156803292;0,190775643;-0,047961933;0,447327785;0,488669459
2,166817292;0,110929721;0,056696357;0,229756984;0,261358282
2,176831292;0,01444942;0,200274007;-0,067896699;0,211963264
2,186845292;-0,043156837;0,350286955;-0,385436761;0,522613586
2,196859292;-0,094462646;0,481186964;-0,597313544;0,772817932
2,206873292;-0,046734163;0,565415667;-0,65952558;0,869972959
2,216887292;0,012217903;0,588528103;-0,640718595;0,870077539
2,226901292;0,014905357;0,565085153;-0,506107505;0,758741199
2,236915292;-0,000745081;0,4901506;-0,256006304;0,552980464
2,246929292;-0,064439752;0,404409514;0,07522326;0,416362914
2,256943292;-0,135470485;0,273474568;0,382392116;0,489248733
2,266958292;-0,125753143;0,119161577;0,540135376;0,567238538
2,276972292;-0,044048683;0,027729982;0,50439544;0,507073958
2,286986292;-0,015951716;-0,011308515;0,202714781;0,203655646
2,297000292;-0,026947186;0,014447885;-0,196386924;0,198752902
2,307014292;-0,008557108;0,098759034;-0,38714064;0,399630387
2,317028292;-0,030443163;0,113605699;-0,472647398;0,487061191
2,327042292;-0,02188971;0,08379674;-0,478158984;0,485939365
2,337056292;0,029040489;0,000593931;-0,226015935;0,227874759
2,347070292;0,099849247;-0,027642712;-0,027953784;0,107309858
2,357084292;0,170839123;-0,081879292;-0,016561654;0,190169695
2,367098292;0,186422757;-0,125136116;0,111611068;0,250737955
2,377112292;0,078551641;-0,149195947;0,31252666;0,355109425
2,387126292;-0,082529064;-0,173504722;0,503966255;0,539348608
2,397140292;-0,243233646;-0,182769928;0,617908607;0,688751406
2,407154458;-0,385828159;-0,200892496;0,589955993;0,732986519
2,417168458;-0,50327716;-0,170232474;0,474412088;0,7122737
2,427182458;-0,583500594;-0,110501558;0,303152989;0,666772279
2,437196458;-0,484389411;-0,075278078;0,178950527;0,521845937
2,447210458;-0,320662476;-0,098095667;-0,007101443;0,33540664
2,457225458;-0,108170493;-0,091032962;-0,163510369;0,216156185
2,467239458;0,0467634;-0,079889484;-0,308247668;0,321847432
2,477253458;0,092595557;-0,011282056;-0,35277363;0,364897871
2,487267458;-0,035415635;0,046106319;-0,19009532;0,198787048
2,497281458;-0,336190634;0,07763012;0,086470379;0,35570733
2,507295458;-0,545755501;0,162006904;0,027494193;0,569957221
2,517309458;-0,549709242;0,219496143;-0,292496438;0,660237059
2,527323458;-0,398929796;0,175733827;-0,573551629;0,720408795
2,537337458;-0,196116125;0,09701364;-0,74116382;0,772785215
2,547351458;-0,013354383;0,051466754;-0,737660753;0,739574576
2,557365458;0,051213131;0,052067847;-0,643051634;0,647185638
2,567379458;0,061378734;0,091471357;-0,31460593;0,33333354
2,577393458;0,046823845;0,139765996;0,110753866;0,184373059
2,587407458;0,067282668;0,05318832;0,394225711;0,403447476
2,597421458;0,023988641;-0,037872708;0,648746822;0,650293962
2,607435458;-0,149534793;-0,06456861;0,804896716;0,821211595
2,617450458;-0,375565419;0,01817607;0,646855833;0,74819932
2,627464458;-0,436395977;0,157950836;0,472487769;0,662294955
2,637478458;-0,403007937;0,146433576;0,419625431;0,599953075
2,647492458;-0,340235811;0,051866265;0,502499773;0,609062015
2,657506458;-0,227145544;-0,014328602;0,646345371;0,685246485
2,667520458;-0,103440607;-0,038042424;0,730774487;0,739038928
2,677534458;-0,046533458;-0,054006199;0,54561948;0,550256894
2,687548458;0,007893376;-0,07128019;0,262159914;0,271792184
2,697562458;0,054531352;-0,056820464;-0,049047614;0,09277878
2,707576458;0,058243969;-0,019066308;-0,191527303;0,20109349
2,717590458;-0,062928539;0,023450112;-0,219782803;0,229813814
2,727604458;-0,160869109;0,114645626;-0,236108814;0,30784714
2,737618458;-0,253972021;0,182665994;-0,376151968;0,489243248
2,747632458;0,051506697;0,20105271;-0,50670626;0,547564029
2,757646458;0,627140922;0,283931583;-0,714550803;0,992222621
2,767660458;0,924824279;-7,30902E-05;-0,864678649;1,266084167
2,777675458;1,074908345;-0,260214984;-0,731287288;1,325866088
2,787689458;1,040262422;-0,225625487;-0,327066931;1,113564343
2,797703458;0,792045779;-0,169038181;0,117148966;0,818311861
2,807717458;0,404047426;-0,079893723;0,401278038;0,575031645
2,817731458;0,085505516;0,179497826;0,584944929;0,617811648
2,827745458;-0,388691212;0,276318654;0,238908461;0,533394891
2,837759458;-0,700029608;0,48750722;-0,50288335;0,990250678
2,847773458;-0,665284795;0,840818063;-1,116817605;1,548179717
2,857787458;-0,418315216;0,98088212;-1,419876453;1,77571577
2,867801458;-0,03836614;0,855859294;-1,418772499;1,657372166
2,877815458;0,487387169;0,668739768;-1,095725529;1,373089059
2,887829458;0,672606898;0,426873055;-0,920435359;1,217301069
2,897843458;0,567144579;0,215164526;-0,57440123;0,835395427
2,907857458;0,47825232;0,136088974;-0,219498044;0,543530019
2,917871458;0,366833479;0,147563258;0,094605026;0,406560976
2,927885458;0,14636403;-0,449471959;0,357847259;0,592876152
2,937899458;0,250581623;-0,799725877;0,320184174;0,897145771
2,947914458;0,347576296;-0,850488626;-0,066366482;0,921164858
2,957928458;0,510136456;-0,908959029;-0,326911395;1,092390397
2,967942458;0,548891582;-0,739597789;-0,63252957;1,117309499
2,977956458;0,513751789;-0,321540289;-1,147041863;1,297318039
2,987970458;0,219315903;0,199549829;-1,304972818;1,338235277
2,997984458;0,15048449;0,43251211;-0,883638246;0,995253162
3,007998458;0,484988203;0,464056596;-0,167715687;0,691874723
3,018012458;-0,121087961;-0,054137323;0,358725511;0,382461941
3,028026458;-0,54898627;-0,209160605;0,857501192;1,039443302
3,038040458;-0,837261347;0,284508484;0,911224825;1,269756797
3,048054458;-0,521643849;0,716614139;0,428136638;0,984352127
3,058068458;0,264995868;0,554934241;-0,254540992;0,665556863
3,068082458;1,174835871;1,595994296;-0,251610952;1,997684958
3,078096458;0,308367316;2,18458014;-0,091989566;2,208153725
3,088110458;-0,579789402;1,62625393;-0,326740072;1,757161538
3,098124458;-1,054128583;1,675498449;-0,781831205;2,128319091
3,108139458;-1,450599478;2,307220372;-1,005602978;2,904951298
3,118153458;-1,763326844;2,625933386;-1,012254771;3,321070224
3,128167458;-1,875819672;2,629000543;-0,93032417;3,360929389
3,138181458;-1,908225087;2,421591764;-0,576780462;3,136575419
3,148195458;-1,480724334;1,821295702;-0,231974248;2,358701896
3,158209458;-0,725304417;1,156789756;0,349748865;1,40945142
3,168223458;-0,077323507;0,61152882;1,192274753;1,342186839
3,178237458;-0,048722162;0,14852666;1,573686876;1,581431125
3,188251458;-0,580457556;-0,021284084;1,35457241;1,473855624
3,198265458;-0,765915888;-0,153567398;0,760963077;1,090538811
3,208279458;-0,983011895;-0,035151889;-0,051035668;0,984963289
3,218293458;-0,840258192;0,292324256;-0,68910489;1,125323442
3,228307458;-0,403283743;0,308960516;-0,744394407;0,901231053
3,238321458;0,402309852;0,238141068;-0,237396371;0,524329498
3,248335458;1,052453355;-0,143679373;0,204671844;1,081754312
3,258349458;1,587167632;-0,268118336;0,904928543;1,846587177
3,268364458;0,89909653;-0,254102012;1,400485917;1,683538893
3,278378458;0,134485704;-0,108683476;1,433605716;1,443995793
3,288392458;-0,297697171;0,656964499;1,960887743;2,089331639
3,298406458;-0,744862038;1,609974404;2,154246393;2,790629779
3,308420458;-0,501065159;1,949827296;1,083345219;2,286160458
3,318434458;0,202868855;1,229185595;0,047455418;1,246717697
3,328448458;0,768874944;0,086012871;-0,082941585;0,778104235
3,338462458;0,658027742;-1,438895107;0,094981586;1,585068182
3,348476458;0,531784968;-2,376758384;0,408247334;2,469502289
3,358490458;0,929908214;-1,699299687;0,734707325;2,071748914
3,368504458;0,545263604;-0,755665719;0,859121456;1,267451282
3,378518458;-0,198315189;0,034370811;0,340994414;0,39596396
3,388532458;-0,881825609;0,664800426;-0,497584019;1,211266225
3,398546458;-0,706140899;1,216426605;-1,020190027;1,737560458
3,408560792;-0,276651617;1,1971889;-1,351489173;1,826559707
3,418574792;0,012605318;0,44305654;-1,466037882;1,531576006
3,428589792;1,241036731;-0,071317612;-1,648837046;2,064926627
3,438603792;1,530888181;-0,822722538;-1,440838137;2,257544138
3,448617792;0,331075928;-1,344610947;-0,627133175;1,520159823
3,458631792;0,091757578;-0,734786262;0,062804943;0,743151912
3,468645792;0,256110421;-0,096603604;0,035096743;0,275964826
3,478659792;0,129206308;0,051223875;-0,152450945;0,206299409
3,488673792;-0,068527357;-0,057816611;-0,344326158;0,3558079
3,498687792;-0,130524334;0,057958332;-0,610267466;0,626755255
3,508701792;-0,367978291;0,226701082;-0,495593626;0,657582273
3,518715792;-0,414987456;0,391531972;-0,138881897;0,587196777
3,528729792;-0,235272644;0,419285635;0,474986284;0,675844384
3,538743792;-0,132150418;0,476402626;0,939201413;1,061377637
3,548757792;-0,099216505;0,63821723;0,902248179;1,109602147
3,558771792;-0,173644233;0,548278063;0,583303615;0,819148498
3,568785792;0,004490863;0,823107431;0,008549214;0,823164078
3,578799792;-0,130474679;1,464675481;-0,686702853;1,622916731
3,588814792;-0,320945481;1,126943155;-0,298835405;1,209259888
3,598828792;0,150458022;0,124740186;0,746974198;0,772119281
3,608842792;0,734583364;-0,50969638;1,107390724;1,42327697
3,618856792;0,996191373;-0,760529944;0,730481542;1,450657207
3,628870792;0,76731118;-0,800675831;0,173764046;1,122516003
3,638884792;0,307376871;-0,661356197;0,049472707;0,73097203
3,648898792;-0,205283462;-0,398315692;0,325328554;0,553746656
3,658912792;-0,551214863;-0,470069215;0,643003687;0,968636482
3,668926792;-0,566451976;-0,590703048;0,587706569;1,00756982
3,678940792;-0,208192781;-0,643320826;0,2105711;0,7081992
3,688954792;0,085613753;-0,814017934;0,068058082;0,821332341
3,698968792;0,278794859;-0,818515466;0,003579081;0,864700498
3,708982792;0,215612587;-0,664199186;-0,037609291;0,69933097
3,718996792;-0,285705628;-0,415588952;-0,414726049;0,652946842
3,729010792;-0,776629668;-0,171320203;-1,112024058;1,367150964
3,739024792;-0,547447685;0,001387325;-1,562475425;1,655605734
3,749039792;-0,359912788;-0,134699456;-1,634266954;1,678841754
3,759053792;-0,491058745;-0,265973175;-0,842093779;1,010446611
3,769067792;-1,07146375;-0,716959856;0,169879156;1,300355693
3,779081792;-0,677180882;-0,675408299;1,041858639;1,41429125
3,789095792;-0,185494603;-0,612978381;1,611096777;1,733719576
3,799109792;0,065811052;-0,757842345;1,498556002;1,680573178
3,809123792;0,017661524;-0,969544661;0,809732949;1,263327443
3,819137792;-0,063690824;-1,037094182;0,073341626;1,041633264
3,829151792;0,074066681;-0,717255871;-0,40637681;0,827697994
3,839165792;0,001957365;-0,378520236;-0,490612383;0,61966274
3,849179792;-0,284006847;-0,300762062;-0,517543489;0,662547335
3,859193792;-0,429760045;-0,390260203;-0,498709608;0,765315618
3,869207792;-0,325010648;-0,355088031;-0,107830843;0,493302059
3,879221792;-0,131106059;-0,265916969;0,398721635;0,496869777
3,889235792;-0,010423612;-0,245709284;0,66842855;0,712234814
3,899250792;0,028350993;-0,242757902;1,046211891;1,074380984
3,909264792;0,086456291;-0,249569031;1,177566082;1,2068228
3,919278792;0,380869136;-0,363847306;1,019371417;1,147416336
3,929292792;0,70332159;-0,602409904;0,533714549;1,068835896
3,939306792;0,937171406;-0,601084779;-0,227066095;1,136288769
3,949320792;0,928504516;-0,346418876;-0,5237047;1,120889508
3,959334792;0,107358845;-0,357383794;-0,559149352;0,672232918
3,969348792;0,006481278;0,069609202;-0,142269773;0,158518568
3,979362792;-0,162299356;0,234742173;0,098508627;0,301908792
3,989376792;-0,07483627;0,168897555;-0,027755563;0,186807984
3,999390792;0,199708782;0,055292806;-0,145302724;0,25308847
4,009404792;0,525966367;-0,110850053;-0,130797536;0,553205521
4,019418792;0,528981776;-0,16512749;-0,164921302;0,578176308
4,029432792;0,236072945;-0,05699822;-0,045472042;0,247076788
4,039446792;-0,044849049;0,118686929;-0,032429827;0,130956932
4,049460792;-0,148283361;0,18651887;-0,11874701;0,266229405
4,059475792;0,039629098;0,082998229;-0,519901087;0,527973779
4,069489792;0,298096792;0,077563243;-0,96844977;1,016254255
4,079503792;0,262120555;0,148397582;-0,955909832;1,0022438
4,089517792;-0,105276276;0,220497771;-0,448310702;0,510573057
4,099531792;-0,329251159;0,433605028;-0,095271608;0,552717219
4,109545792;-0,262292408;0,3327016;0,185181904;0,462363493
4,119559792;0,154842859;0,041943613;0,476493697;0,502774125
4,129573792;0,46333779;-0,247233215;0,564891903;0,771303463
4,139587792;0,545902266;-0,447111072;0,43065328;0,826667916
4,149601792;0,561361244;-0,403409056;0,288057232;0,748894039
4,159615792;0,486935691;-0,255335555;0,382176939;0,669598257
4,169629792;0,288732421;-0,074333533;0,634288997;0,700866904
4,179643792;0,198567223;0,032155593;0,674108536;0,703480804
4,189657792;0,152041366;0,069442849;0,443239996;0,473709384
4,199671792;-0,06937461;0,264693293;0,120035736;0,298804206
4,209686792;-0,31391033;0,529110744;-0,121592265;0,627122439
4,219700792;-0,44377794;0,72778773;-0,354114397;0,923044336
4,229714792;-0,442942812;0,755747068;-0,311703957;0,92979101
4,239728792;-0,327535476;0,579093364;0,011318455;0,665399669
4,249742792;0,025972242;0,322142918;0,377668735;0,497075739
4,259756792;0,494583118;0,013560716;0,451231971;0,669631723
4,269770792;0,678277162;-0,16434389;0,114689627;0,707264118
4,279784792;0,545672397;-0,104454076;-0,365042843;0,664774621
4,289798792;0,236719172;-0,028165161;-0,629881366;0,673483317
4,299812792;-0,160924621;0,192256962;-0,604725475;0,654639117
4,309826792;-0,369376068;0,455512571;-0,311467729;0,664035036
4,319840792;-0,326815647;0,48960542;-0,185573083;0,617219008
4,329854792;-0,364594617;0,24074054;-0,406577954;0,596817288
4,339868792;-0,017466967;0,247007439;-0,654536151;0,699810933
4,349882792;0,267870305;0,410175892;-0,703574994;0,857331053
4,359897792;0,179042547;0,160950824;-0,58341939;0,631141495
4,369911792;0,129157676;-0,010620188;-0,273934452;0,303042204
4,379925792;0,19656943;-0,018571086;-0,013412928;0,197899805
4,389939792;0,22372167;-0,136361491;0,076414922;0,272919553
4,399953792;0,210975727;-0,084114573;0,011048899;0,227394144
4,409967208;0,061821926;-0,001565336;-0,203719917;0,212899519
4,419981208;-0,123862839;0,071105139;-0,35565163;0,383257127
4,429995208;-0,200878992;0,188043239;-0,376257218;0,466135306
4,440009208;-0,212478936;0,212484235;-0,390558338;0,492780543
4,450023208;-0,182864287;0,146854795;-0,393859676;0,458400613
4,460037208;-0,134474037;0,088130367;-0,295814733;0,336684696
4,470051208;-0,10611558;0,022068525;-0,178997304;0,2092548
4,480065208;-0,116247608;-0,011955254;-0,063632324;0,133062043
4,490079208;-0,140494047;-0,00993314;0,075966441;0,16002545
4,500093208;-0,164038702;0,040738977;0,225719481;0,28198873
4,510108208;-0,18602436;0,086369953;0,170224142;0,266535345
4,520122208;-0,1915633;0,101583933;0,021992548;0,217943721
4,530136208;-0,23615106;0,141789169;-0,115219384;0,298574946
4,540150208;-0,282223684;0,16088168;-0,22768473;0,396703238
4,550164208;-0,285644269;0,225539862;-0,326148334;0,48870606
4,560178208;-0,311999168;0,256637694;-0,390745448;0,562039493
4,570192208;-0,263557307;0,234193376;-0,269185928;0,443587709
4,580206208;-0,10231944;0,150979092;0,096122378;0,206163686
4,590220208;0,052542184;0,003846883;0,423364726;0,426630016
4,600234208;0,194101211;-0,122456995;0,536393743;0,583428867
4,610248208;0,303421431;-0,221625882;0,623756992;0,728186364
4,620262208;0,338310981;-0,259953577;0,584718642;0,723827377
4,630276208;0,268752649;-0,215338042;0,478605126;0,589628125
4,640290208;0,093069035;-0,068687498;0,439833409;0,454789231
4,650304208;-0,125670113;0,059188294;0,329049137;0,35716882
4,660318208;-0,206735107;0,132051252;0,1768964;0,302438876
4,670333208;-0,123562027;0,137298325;0,051508123;0,19175894
4,680347208;0,036356233;0,131635771;0,088444984;0,162703003
4,690361208;0,195097576;0,097784266;0,24044277;0,324711491
4,700375208;0,316873407;0,033839993;0,373337703;0,490851242
4,710389208;0,372240217;-0,028701789;0,385306368;0,536514277
4,720403208;0,324249962;-0,020616442;0,209315702;0,386492094
4,730417208;0,154250389;0,02781177;-0,008561493;0,15697126
4,740431208;-0,080613552;0,049783888;-0,13786682;0,167284908
4,750445208;-0,313867902;0,131006794;-0,149188784;0,371393501
4,760459208;-0,42953595;0,299936581;-0,056215716;0,526899698
4,770473208;-0,433557848;0,268980874;0,006057715;0,510254656
4,780487208;-0,267186948;0,171747378;0,022883663;0,31844888
4,790501208;-0,063262342;0,082332085;0,037717465;0,110468563
4,800515208;0,085987381;-0,020715187;-0,028518625;0,092931483
4,810530208;0,161452898;-0,136700447;-0,096940404;0,232704732
4,820544208;0,102312935;-0,115955732;-0,125922128;0,199424298
4,830558208;-0,043494185;-0,018841629;-0,129578977;0,137976311
4,840572208;-0,232422619;0,050136512;-0,163847753;0,288756005
4,850586208;-0,400091967;0,095518434;-0,312479298;0,516566225
4,860600208;-0,436815478;0,123130338;-0,455410391;0,642936596
4,870614208;-0,33262248;0,143509054;-0,482522176;0,603374024
4,880628208;-0,147370373;0,07983072;-0,300732826;0,344283609
4,890642208;0,103376087;-0,004036114;-0,060376595;0,119784134
4,900656208;0,209884874;-0,112709906;0,086229474;0,253358847
4,910670208;0,147858634;-0,144181959;0,173289837;0,269592249
4,920684208;0,071605807;-0,058360329;0,151121289;0,177118501
4,930698208;-0,074522142;0,101087322;0,03530081;0,130454373
4,940712208;-0,128190976;0,152991228;-0,056857156;0,207537896
4,950727208;-0,130095797;0,080726513;-0,132045332;0,202182235
4,960741208;-0,129630268;0,032672597;-0,141854621;0,194921108
4,970755208;-0,13609939;0,038091833;-0,00222545;0,141347035
4,980769208;-0,07170404;0,032017891;0,157042179;0,175581493
4,990783208;0,030611252;0,003231025;0,251044942;0,252924991
5,000797208;0,105982392;0,010743382;0,225419519;0,249322376
5,010811208;0,193430078;-0,037310169;0,032830946;0,199712581
5,020825208;0,188320891;-0,071040308;-0,209361895;0,29042019
5,030839208;0,030927093;0,062790983;-0,272246361;0,281100113
5,040853208;-0,099100548;0,195141978;-0,168022081;0,275921601
5,050867208;-0,199708508;0,24008609;-0,027241008;0,313475503
5,060881208;-0,256643943;0,186687928;-0,015669953;0,317748396
5,070895208;-0,150911081;0,0986699;-0,065019869;0,191670256
5,080909208;0,045817357;-0,019452882;0,027037525;0,056645146
5,090923208;0,230784102;-0,113632889;0,183577428;0,316029124
5,100938208;0,328394359;-0,188463179;0,326521971;0,499977822
5,110952208;0,343489056;-0,182328792;0,395648339;0,554766733
5,120966208;0,23610843;-0,089496496;0,280464038;0,377381624
5,130980208;0,101826849;0,004373571;0,103711479;0,145409443
5,140994208;0,024178821;0,100381271;-0,153303469;0,184832272
5,151008208;-0,044568592;0,170205285;-0,437826059;0,471855758
5,161022208;-0,144670659;0,172036706;-0,7120365;0,746674095
5,171036208;-0,248341883;0,201616564;-0,695853161;0,765855438
5,181050208;-0,307182341;0,274954097;-0,357641437;0,545772978
5,191064208;-0,222427517;0,252173783;0,04097144;0,338739245
5,201078208;-0,059332428;0,138834096;0,306788787;0,341927775
5,211092208;0,149610386;0,035298691;0,403899345;0,432161944
5,221106208;0,270465701;-0,033099626;0,335578138;0,432273024
5,231120208;0,204135928;-0,096046912;0,053964538;0,231966933
5,241135208;0,041771668;-0,038764774;-0,244780819;0,251326937
5,251149208;-0,096584637;0,087292461;-0,29548495;0,32289305
5,261163208;-0,146397597;0,130752732;-0,207624688;0,285721095
5,271177208;-0,110768959;0,067591547;-0,18413116;0,225261323
5,281191208;0,038507716;-0,007321079;-0,097964251;0,105515103
5,291205208;0,140306333;-0,076766048;0,050845633;0,167821845
5,301219208;0,155616774;-0,102067717;0,169283325;0,25157751
5,311233208;0,13907427;-0,081202403;0,283153757;0,325747652
5,321247208;0,092146089;-0,061031483;0,388329964;0,403752281
5,331261208;0,069712442;-0,052215636;0,332183245;0,343412296
5,341275208;0,073888615;-0,062979483;0,064864917;0,116762152
5,351289208;0,026816902;0,018290091;-0,250285973;0,252382135
5,361303208;-0,067226955;0,107357109;-0,399637894;0,419231987
5,371317208;-0,134255013;0,153333729;-0,363500932;0,41673561
5,381332208;-0,102558847;0,187065804;-0,180084887;0,279181838
5,391346208;-0,025507528;0,167492469;-0,002536522;0,169442601
5,401360208;0,094300185;0,086064582;0,031700095;0,131546696
5,411373792;0,195472401;0,000310633;-0,036059779;0,198770882
5,421387792;0,25427456;-0,013493948;-0,161179669;0,301357801
5,431401792;0,243525568;0,008365319;-0,199198265;0,314729455
5,441415792;0,110797154;0,02331749;-0,207137614;0,236062928
5,451429792;-0,071359091;0,085221487;-0,160220726;0,195001289
5,461443792;-0,122141117;0,10685878;-0,216622968;0,270670947
5,471457792;-0,063160015;0,059716481;-0,294796733;0,30734404
5,481471792;0,040823615;-0,017985414;-0,247826049;0,251809042
5,491485792;0,15142803;-0,063326807;-0,092890622;0,188598516
5,501499792;0,22855052;-0,102588631;0,093222159;0,267301587
5,511513792;0,25665624;-0,16107325;0,213980611;0,370951101
5,521528792;0,204598973;-0,139548114;0,197589111;0,316821515
5,531542792;0,227881781;-0,098129618;0,086789052;0,26285332
5,541556792;0,251915665;-0,097159089;0,01035308;0,270200994
5,551570792;0,125739074;-0,080942385;-0,081514864;0,170313409
5,561584792;0,034801056;0,01822599;-0,164745301;0,169364443
5,571598792;-0,033028948;0,079491435;-0,174708372;0,194763484
5,581612792;-0,078931957;0,078710686;-0,044060524;0,119862236
5,591626792;-0,007901215;0,060105467;0,091969686;0,110152255
5,601640792;0,062943321;0,056117885;0,166622842;0,186746486
5,611654792;0,103949973;0,038207644;0,179390822;0,210823357
5,621668792;0,127175515;-0,021515049;0,168204514;0,211965251
5,631682792;0,122570522;-0,099415567;0,180640372;0,239870656
5,641696792;0,092948838;-0,086777797;0,198605357;0,235826124
5,651710792;0,008539283;-0,009933725;0,162788823;0,16331503
5,661725792;-0,054957496;0,047529568;0,071476949;0,101923208
5,671739792;-0,095376365;0,142077108;-0,00104022;0,171124626
5,681753792;-0,101901218;0,198696172;-0,075499249;0,23572052
5,691767792;-0,023395075;0,164217955;-0,155476879;0,227349789
5,701781792;0,064941397;0,094768053;-0,126529069;0,170903406
5,711795792;0,153702798;0,043294904;0,014411632;0,160333072
5,721809792;0,233542635;-0,018291187;0,162477166;0,285088687
5,731823792;0,189900553;-0,07668521;0,239173924;0,314876178
5,741837792;0,070443161;-0,088928695;0,16269936;0,198347255
5,751851792;-0,120717887;-0,043539501;-0,055200639;0,139698271
5,761865792;-0,177227827;0,027523429;-0,217027595;0,281546122
5,771879792;-0,138874633;0,014743133;-0,201321389;0,245018011
5,781893792;-0,063168878;-0,004148526;-0,074180117;0,097520291
5,791908792;0,002217118;-0,006581224;0,114647527;0,114857666
5,801922792;-0,001576592;0,001894315;0,319350945;0,319360455
5,811936792;-0,013041822;-0,016314134;0,392798991;0,393353895
5,821950792;0,016912761;-0,034388206;0,347339813;0,349447472
5,831964792;0,035810413;-0,06501753;0,236717509;0,248082333
5,841978792;0,065355956;-0,105204273;0,056233258;0,13602029
5,851992792;0,119904265;-0,059347558;-0,073683103;0,15273626
5,862006792;0,091607341;0,004384571;-0,114875568;0,146994985
5,872020792;-0,085804966;0,04638249;-0,14998459;0,178911164
5,882034792;-0,334137677;0,160221676;-0,129692997;0,392605713
5,892048792;-0,400967514;0,23097759;-0,008950918;0,462823631
5,902062792;-0,260417919;0,207217575;0,124340456;0,355270552
5,912076792;-0,017367893;0,04659584;0,129347427;0,138576957
5,922090792;0,174975699;-0,085292494;0,094947088;0,216578518
5,932105792;0,212258204;-0,110492313;0,135008701;0,274753427
5,942119792;0,003915707;-0,0395756;0,162471904;0,167268288
5,952133792;-0,208509956;0,083442801;-0,055592403;0,231364686
5,962147792;-0,274619307;0,1540438;-0,279036732;0,420721706
5,972161792;-0,207930716;0,117241315;-0,441221538;0,501654417
5,982175792;-0,083072544;0,062263528;-0,504278496;0,514853956
5,992189792;0,024136283;0,025182204;-0,414105075;0,415571554
6,002203792;0,102416175;0,027256248;-0,204271894;0,230128187
6,012217792;0,057925003;0,020506916;0,021691416;0,065164079
6,022231792;-0,00217944;0,003568227;0,063621799;0,063759043
6,032245792;-0,041344291;0,006935456;-0,011107371;0,043368475
6,042259792;-0,038212194;0,008930343;-0,089412698;0,097645038
6,052273792;-0,019534744;-0,009682185;-0,157720456;0,159220266
6,062288792;0,021177245;-0,037284076;-0,175156268;0,180328302
6,072302792;0,107933187;-0,040240319;-0,114999529;0,162769002
6,082316792;0,120549505;-0,03829696;0,022426411;0,128459271
6,092330792;0,057497681;-0,046668967;0,112547207;0,134725089
6,102344792;0,010531365;0,012037078;0,104273981;0,105493432
6,112358792;0,032186949;0,074644093;0,047781692;0,0942912
6,122372792;0,092549218;0,019946607;-0,039880934;0,10273127
6,132386792;0,184288669;-0,031257388;-0,060136859;0,196356257
6,142400792;0,111865458;-0,037969882;-0,008476709;0,118437524
6,152414792;-0,028444;0,008345329;0,061854771;0,068590949
6,162428792;-0,155324285;0,015065753;0,078605289;0,174732373
6,172442792;-0,178116823;0,02987876;0,056299331;0,189177054
6,182456792;-0,119901177;0,039050557;0,069373705;0,143923414
6,192471792;-0,077607444;0,0182773;0,103886311;0,130955491
6,202485792;-0,078751744;0,039291352;0,116178913;0,145750428
6,212499792;-0,117395791;0,068835213;0,094876336;0,165896286
6,222513792;-0,115139661;0,07578145;0,030790853;0,141237553
6,232527792;-0,040098122;0,063222581;-0,035892549;0,083025473
6,242541792;-0,005817486;0,004760913;-0,062718989;0,06316788
6,252555792;0,000718751;0,032298229;-0,080092821;0,08636291
6,262569792;-0,073974477;0,099731133;-0,006685122;0,124351169
6,272583792;-0,193871982;0,120184146;-0,102950172;0,25025849
6,282597792;-0,192569551;0,140839545;-0,223046719;0,326601666
6,292611792;-0,089352965;0,113547592;-0,169335365;0,222601604
6,302625792;0,012936599;0,044636877;-0,011366403;0,04784351
6,312639792;0,107863825;-0,021703001;0,187181652;0,217123458
6,322654792;0,104609886;-0,036494081;0,281364509;0,302392184
6,332668792;0,068318685;-0,053880119;0,266851135;0,280677819
6,342682792;-0,053713857;-0,024644552;0,167691128;0,177800019
6,352696792;-0,121820507;0,041112468;0,024763543;0,130933968
6,362710792;-0,134825153;0,073103425;-0,06814696;0,167827116
6,372724792;-0,185206024;0,076458046;-0,179322994;0,268893735
6,382738792;-0,159772683;0,078375494;-0,206564003;0,272651271
6,392752792;-0,074001046;0,070917188;-0,093485869;0,138726385
6,402766792;-0,007972551;0,080697971;0,083975372;0,116737258
6,412783667;-0,00981245;0,063072965;0,277998852;0,285232965
6,422797667;-0,038128725;0,041224588;0,318027136;0,322946629
6,432811667;-0,055771748;0,049244227;0,188858049;0,202984838
6,442825667;-0,086212919;0,019948142;-0,055379564;0,104391053
6,452839667;-0,135003238;0,019889048;-0,247213261;0,282375362
6,462854667;-0,195798365;0,058829056;-0,274789315;0,342501132
6,472868667;-0,275842581;0,116261431;-0,192369887;0,355825833
6,482882667;-0,20672725;0,117443629;0,00080867;0,237759996
6,492896667;-0,047393053;0,04789458;0,151983753;0,166249973
6,502910667;0,07094001;-0,01032516;0,215224314;0,226849287
6,512924667;0,120069284;-0,045601923;0,204064318;0,241119087
6,522938667;0,080858587;-0,050057209;0,112607433;0,147391551
6,532952667;-0,023027614;-0,008308163;-0,030338278;0,038983429
6,542966667;-0,122371534;0,046563352;-0,204840243;0,243109982
6,552980667;-0,198607386;0,03567971;-0,268666695;0,336005548
6,562994667;-0,205256456;0,027229679;-0,212914079;0,296991705
6,573008667;-0,201875888;-0,002571679;-0,148708727;0,250748426
6,583023667;-0,173339191;-0,00934904;-0,038502161;0,177809719
6,593037667;-0,103671024;-0,030576626;0,075240802;0,131695822
6,603051667;0,006790079;-0,088311521;0,080877517;0,119942498
6,613065667;0,062117366;-0,10651193;0,002598503;0,123329277
6,623079667;0,033208859;-0,100490175;-0,075682266;0,130111141
6,633093667;-0,08993257;-0,096226678;-0,114770903;0,174699173
6,643107667;-0,179403558;-0,037548699;-0,111123995;0,214345711
6,653121667;-0,245794928;0,060533812;-0,105815892;0,274365617
6,663135667;-0,239562179;0,058823574;-0,132086263;0,279816067
6,673149667;-0,14973305;0,011158826;-0,133880773;0,201168007
6,683163667;-0,020055621;-0,032683012;-0,074011717;0,083355512
6,693177667;0,091838653;-0,078791596;0,008323511;0,12129194
6,703191667;0,106800856;-0,100496826;0,086998383;0,170513206
6,713206667;0,082705101;-0,088968237;0,108840657;0,163100489
6,723220667;0,017442409;-0,039050776;0,018173146;0,046470033
6,733234667;-0,044796451;-0,025434438;-0,124404191;0,13464782
6,743248667;-0,085445691;0,006645361;-0,160797261;0,182211103
6,753262667;-0,105136464;0,05312919;-0,133210682;0,177824275
6,763276667;-0,080243003;0,038116391;-0,077156349;0,117664358
6,773290667;-0,080247699;0,042124803;-0,053471033;0,105229956
6,783304667;-0,029558223;0,068412715;-0,093047327;0,119213226
6,793318667;0,003908261;0,047998331;-0,119627016;0,128956338
6,803332667;-0,018151402;0,002822378;-0,071424324;0,073748717
6,813346667;-0,022903599;-0,001895631;0,047347244;0,052630122
6,823360667;-0,004814744;-0,001571147;0,110845082;0,110960725
6,833374667;-0,007757647;-0,04783556;0,109537645;0,119778619
6,843389667;0,024847359;-0,065230222;0,116261943;0,135606831
6,853403667;0,062795113;-0,089692999;0,117395133;0,160529367
6,863417667;0,023515181;-0,038131667;0,030108483;0,053976925
6,873431667;-0,106006712;0,0318147;-0,07250372;0,132311706
6,883445667;-0,114974624;0,088045327;-0,197360485;0,244790328
6,893459667;-0,007096583;0,101807772;-0,207660356;0,231382815
6,903473667;0,064088974;0,043466886;-0,138785418;0,158928156
6,913487667;0,117523425;0,004378395;-0,057552974;0,130932313
6,923501667;0,126031051;-0,031809657;0,010965284;0,130445074
6,933515667;0,11312292;-0,037076025;0,088661331;0,148432673
6,943529667;0,108903313;-0,047109993;0,134026369;0,179003773
6,953543667;0,120033086;-0,074361161;0,113996732;0,181473907
6,963558667;0,16269682;-0,113819122;0,10993701;0,226960777
6,973572667;0,132447749;-0,095189528;0,120481879;0,202779031
6,983586667;0,087532526;0,008937981;0,091381456;0,126855828
6,993600667;0,044176007;0,062490802;0,038166531;0,085517857
7,003614667;0,003004573;0,061610796;-0,081661044;0,102339845
7,013628667;0,029190671;0,051451953;-0,145372891;0,156948004
7,023642667;0,0869011;0,017818074;-0,08699429;0,124246897
7,033656667;0,116133688;-0,031160251;0,015123239;0,121188725
7,043670667;0,141785505;-0,040079703;0,149289941;0,209754615
7,053684667;0,154167213;4,05285E-05;0,21263809;0,262645176
7,063698667;0,198972343;-0,01604783;0,160223649;0,255967076
7,073712667;0,220599915;0,01358659;0,070704532;0,232051823
7,083726667;0,190816135;0,055023615;-0,045104837;0,20364882
7,093741667;0,077965641;0,043177741;-0,15390047;0,177843507
7,103755667;0,01881359;0,07255481;-0,172867084;0,188417569
7,113769667;0,00111965;0,10690764;-0,070615069;0,128128784
7,123783667;0,021631592;0,116740464;0,056097602;0,131313376
7,133797667;0,054272494;0,103581817;0,092437463;0,149061669
7,143811667;0,072300922;0,083436332;0,007473911;0,110656695
7,153825667;0,092882235;0,068765156;-0,074354948;0,137420576
7,163839667;0,09755723;0,026607609;-0,044172791;0,110347693
7,173853667;0,099486089;0,016911171;0,034013838;0,106491365
7,183867667;0,06643421;0,045280107;0,090059985;0,12072528
7,193881667;0,005057193;0,078041983;0,0915826;0,120430474
7,203895667;-0,078037187;0,069317718;-0,003485525;0,104436093
7,213910667;-0,132686105;0,081569901;-0,144815066;0,212674998
7,223924667;-0,193826501;0,132877318;-0,216164546;0,319299554
7,233938667;-0,248953575;0,177804326;-0,256595119;0,399291017
7,243952667;-0,229248824;0,180421832;-0,214844829;0,362305619
7,253966667;-0,080367951;0,119793442;-0,137606034;0,199361222
7,263980667;0,085886909;0,029305587;-0,014696392;0,091931293
7,273994667;0,20686327;-0,084394325;0,030388564;0,225473457
7,284008667;0,23592702;-0,130527139;0,003466814;0,269649609
7,294022667;0,180465321;-0,089816887;0,03293912;0,204254231
7,304036667;0,08693854;-0,087735351;0,036928675;0,128916751
7,314050667;0,027668814;-0,098225695;0,092042191;0,137424944
7,324064667;-0,045978594;-0,029016954;0,102509876;0,116035725
7,334079667;-0,099874016;0,009325944;0,014739076;0,101385564
7,344093667;-0,132300362;0,013978938;-0,080313261;0,155399538
7,354107667;-0,06401486;0,03954662;-0,117201006;0,139276391
7,364121667;0,007590225;0,075129266;-0,123337659;0,144617413
7,374135667;0,04926091;0,054854594;-0,094669345;0,119991452
7,384149667;0,130112983;0,029505123;-0,028815079;0,136492671
7,394163667;0,230962844;0,007870974;0,099738296;0,251701242
7,404177667;0,250001944;0,005421502;0,11491416;0,27520107
7,414188667;0,196750365;-0,007519885;-0,002611367;0,196911335
7,424202667;0,117428828;0,023432644;-0,075000481;0,141292925
7,434216667;-0,040625404;0,076896002;-0,059540443;0,105396788
7,444230667;-0,182839894;0,112047197;-0,069918081;0,225551633
7,454244667;-0,196181029;0,06880711;-0,031566778;0,21028047
7,464259667;-0,152583394;0,022726702;0,057127882;0,164504681
7,474273667;-0,044025788;0,012369346;0,192992615;0,198336634
7,484287667;0,038118081;-0,015146189;0,199477762;0,203651105
7,494301667;0,081015932;-0,07078526;0,151631166;0,185919726
7,504315667;0,104235956;-0,067820137;0,147548055;0,192964075
7,514329667;0,002439988;-0,06144806;0,151280333;0,163302042
7,524343667;-0,114239492;-0,045517394;0,088322777;0,151404781
7,534357667;-0,169857924;0,028571323;0,002391511;0,172260715
7,544371667;-0,133581131;0,059977376;-0,011873356;0,14690875
7,554385667;-0,030161354;0,038980536;-0,050104791;0,070282854
7,564399667;0,124846167;-0,01923807;-0,020712592;0,128006563
7,574413667;0,230367871;-0,065373114;0,069102395;0,249235112
7,584428667;0,244052275;-0,076796015;0,123958048;0,284296919
7,594442667;0,211331164;-0,077947039;0,116627979;0,253650719
7,604456667;0,199274443;-0,091408718;0,094904988;0,238899172
7,614470667;0,074212761;-0,057882319;0,00353815;0,094182881
7,624484667;-0,089048362;0,068057351;-0,094665252;0,146706931
7,634498667;-0,181469361;0,147699279;-0,174088567;0,291638535
7,644512667;-0,173095326;0,155371557;-0,175213571;0,291208015
7,654526667;-0,100554513;0,135799025;-0,112051363;0,202751309
7,664540667;-0,005492244;0,065480702;-0,025573967;0,070511807
7,674554667;0,013414344;0,015821908;0,009739122;0,022915669
7,684568667;0,050462577;0,001153436;0,058599041;0,077341125
7,694582667;0,049463315;3,10633E-05;0,151141754;0,159029715
7,704597667;0,022409235;-0,02869543;0,192714288;0,196123426
7,714611667;-0,003726504;-0,044132372;0,120581281;0,128457769
7,724625667;-0,031761728;-0,011655182;-0,017429965;0,038058564
7,734639667;-0,08029995;-0,016750372;-0,225822977;0,240259597
7,744653667;-0,161226885;-0,023837856;-0,376661845;0,410410157
7,754667667;-0,228046965;0,017784526;-0,305201268;0,381404669
7,764681667;-0,240674247;0,081001113;-0,067928274;0,262867883
7,774695667;-0,128550972;0,062207358;0,127989119;0,191771537
7,784709667;0,04604707;-0,024495302;0,179687861;0,187104462
7,794723667;0,187577399;-0,136642925;0,089891;0,248871375
7,804737667;0,23769235;-0,18818233;-0,064284874;0,309907708
7,814751667;0,133758694;-0,142985838;-0,195110477;0,276413524
7,824766667;-0,035406554;-0,043552986;-0,261756456;0,267706796
7,834780667;-0,180941431;0,065511254;-0,239879683;0,307528516
7,844794667;-0,218269507;0,119261784;-0,194404718;0,315686783
7,854808667;-0,169976604;0,054500801;-0,183500245;0,255997506
7,864822667;-0,038728247;-0,01629714;-0,190852534;0,195423038
7,874836667;0,051898287;-0,048727187;-0,100305476;0,122999835
7,884850667;0,097356086;-0,07503571;0,067625388;0,14029169
7,894864667;0,07195442;-0,079774659;0,262659266;0,283780417
7,904878667;0,051432831;-0,059325777;0,386808518;0,39469699
7,914892667;0,051397217;-0,06908076;0,288533195;0,301106676
7,924906667;0,082774254;-0,103219071;0,038326744;0,137748659
7,934920667;-0,001525712;-0,081452079;-0,205526122;0,221083142
7,944935667;-0,085177003;0,034431476;-0,343201153;0,35528535
7,954949667;-0,092292251;0,066347625;-0,261117355;0,284784375
7,964963667;-0,064957815;0,012993463;-0,031035851;0,073154439
7,974977667;0,000112623;-0,012047603;0,188255786;0,188640924
7,984991667;0,059315572;-0,010135856;0,353703337;0,358785623
7,995005667;0,075849497;-0,007429838;0,3687874;0,376579998
8,005019667;0,058907144;-0,001850278;0,210567006;0,218659414
8,015033667;0,025937536;0,020649369;0,033135586;0,046873439
8,025047667;-0,019460731;0,020037896;-0,098184106;0,102080145
8,035061667;-0,16826876;0,057016492;-0,237777025;0,296821781
8,045075667;-0,290954929;0,145442692;-0,32967245;0,463133104
8,055090667;-0,296993312;0,19866383;-0,178868081;0,399582451
8,065104667;-0,216762826;0,135771032;0,156102532;0,299646285
8,075118667;-0,032448813;0,009657042;0,362216883;0,363795622
8,085132667;0,147240592;-0,058080685;0,384957874;0,41622797
8,095146667;0,191855204;-0,082061579;0,248746986;0,324680743
8,105160667;0,156877251;-0,117038819;0,091006649;0,215848945
8,115174667;0,120373203;-0,064652883;0,002586808;0,136661607
8,125188667;0,082607307;-0,014514982;-0,034323156;0,090624118
8,135202667;-0,022169481;-0,010620371;-0,120553215;0,123033962
8,145216667;-0,103020558;0,023698765;-0,209527956;0,234684536
8,155230667;-0,124611575;0,106526914;-0,299443515;0,341383138
8,165244667;-0,134807228;0,105378082;-0,364922975;0,403046283
8,175259667;-0,140309997;0,015288276;-0,266565791;0,301625509
8,185273667;-0,049896959;-0,0187882;-0,075000481;0,092020515
8,195287667;0,040250204;-0,01388838;0,167414555;0,172744318
8,205301667;0,044708916;-0,033023393;0,262792583;0,268606353
8,215315667;0,048119844;-0,070403254;0,251902143;0,265945159
8,225329667;0,020497323;-0,07380129;0,150656435;0,169009266
8,235343667;-0,05084197;-0,030978914;-0,000365451;0,059537656
8,245357667;-0,145150322;0,036891838;-0,134676579;0,201413517
8,255371667;-0,190174952;0,030258245;-0,14688615;0,242193342
8,265385667;-0,196121789;0,050055967;-0,045705931;0,207505152
8,275399667;-0,119878592;0,026116589;0,0694696;0,140992831
8,285413667;0,012108542;-0,014388317;0,127141272;0,128524486
8,295428667;0,179272452;-0,047625937;0,099451783;0,210469711
8,305442667;0,243390863;-0,075849131;0,053055296;0,260397902
8,315456667;0,164924262;-0,06793741;0,036630467;0,182091447
8,325470667;0,012433611;-0,005508954;0,035559257;0,038071039
8,335484667;-0,100092628;0,069917058;-0,08804328;0,150527567
8,345498667;-0,146675705;0,097043388;-0,256743638;0,31120488
8,355512667;-0,124926795;0,062788425;-0,218695221;0,259570203
8,365526667;-0,138140287;0,016282815;-0,110820524;0,1778456
8,375540667;-0,11025646;0,02890476;-0,016195033;0,115127109
8,385554667;-0,089672991;0,039364479;0,069402941;0,120031561
8,395568667;-0,052849259;-0,016553979;0,140318558;0,150852166
8,405583667;0,009550435;-0,085371103;0,120921589;0,148328914
8,415598458;0,07010426;-0,090895698;0,046531557;0,123862105
8,425612458;0,117644974;-0,123868805;-0,087698295;0,192028153
8,435626458;0,103797433;-0,156578933;-0,126013929;0,226208709
8,445640458;0,014697543;-0,10464221;-0,079629137;0,1323133
8,455654458;-0,090343758;-0,025169778;-0,100610701;0,137542813
8,465668458;-0,178613764;0,017738406;-0,157108837;0,238538706
8,475682458;-0,164304512;0,032717218;-0,171231033;0,239554703
8,485696458;-0,02298419;0,037101607;-0,058070453;0,072642823
8,495710458;0,13020938;0,022483056;0,084677623;0,156940339
8,505724458;0,221546433;-0,006462635;0,132135379;0,258039427
8,515738458;0,270296716;-0,029410252;0,024280563;0,272974035
8,525753458;0,233301328;-0,039197176;-0,137613051;0,273684636
8,535767458;0,128216813;-0,047666794;-0,21229252;0,252546606
8,545781458;-0,008545993;-0,019443454;-0,221250454;0,222267509
8,555795458;-0,118911225;0,081042555;-0,199798774;0,246226167
8,565809458;-0,146142805;0,144496028;-0,113633035;0,234838855
8,575823458;-0,1095542;0,107221124;-0,05177651;0,161800183
8,585837458;-0,020020949;0,046742276;-0,023605794;0,056061683
8,595851458;0,073566863;-0,004060599;-0,011837688;0,07462374
8,605865458;0,132616468;-0,038901818;0,082563854;0,160988413
8,615879458;0,145211416;-0,077386218;0,124556218;0,206371591
8,625893458;0,106200877;-0,046777579;0,048809633;0,125893401
8,635908458;0,05235765;0,035398897;0,007382694;0,063631043
8,645922458;0,017909766;0,04257387;-0,079030382;0,091537399
8,655936458;0,006726281;0,028286344;-0,14740129;0,150241474
8,665950458;-0,001617452;0,054236507;-0,195043818;0,202450749
8,675964458;-0,007889276;0,051320793;-0,201639478;0,208217539
8,685978458;-0,037022267;0,036046842;-0,111820398;0,123182079
8,695992458;-0,003304906;0,035792634;-0,009746139;0,037242748
8,706006458;0,081006714;0,042029201;0,122250661;0,152557417
8,716020458;0,139522121;0,030393096;0,225810113;0,26717105
8,726034458;0,141670946;-0,004480721;0,200609783;0,245631876
8,736048458;0,116309954;-0,00792802;0,027690074;0,1198232
8,746063458;0,052208624;0,001236832;-0,103375849;0,115818117
8,756077458;-0,034218605;0,00681376;-0,130656618;0,135234952
8,766091458;-0,099405937;0,008239823;-0,115587174;0,152675571
8,776105458;-0,085264382;0,09518887;0,035635856;0,132668195
8,786119458;-0,048827572;0,102524714;0,162494123;0,198241743
8,796133458;0,00148774;0,02212294;0,146068125;0,147741446
8,806147458;0,105066489;-0,026948794;0,0384203;0,115070952
8,816161458;0,167458994;-0,01413579;0,038048417;0,172307914
8,826175458;0,138083368;-0,017252868;0,085378704;0,163261144
8,836189458;0,023421269;-0,010823123;0,008762053;0,027248292
8,846203458;-0,072006542;0,075586445;-0,101697114;0,1457414
8,856218458;-0,144902592;0,113377146;-0,257770409;0,316696577
8,866232458;-0,137649614;0,085215567;-0,324270793;0,362437106
8,876246458;-0,024458668;0,04000855;-0,229534205;0,234275183
8,886260458;0,111437506;-0,016380536;-0,08686682;0,142240937
8,896274458;0,198485288;-0,085263222;0,061074167;0,224491159
8,906288458;0,257764196;-0,146676893;0,179275047;0,346548747
8,916302458;0,265177771;-0,127177379;0,250517523;0,386331937
8,926316458;0,181767679;-0,061490416;0,186095824;0,267305473
8,936330458;0,034088006;-0,010642444;0,030158184;0,046741522
8,946344458;-0,012522116;0,043904842;-0,088060822;0,099192474
8,956358458;-0,053635212;0,096382141;-0,151675605;0,187541307
8,966372458;-0,054544079;0,102992199;-0,15774443;0,196126884
8,976387458;0,002468347;0,073305739;-0,090019054;0,116117416
8,986401458;0,018428053;0,055728277;0,032904037;0,067289744
8,996415458;0,014640464;0,046020803;0,149873493;0,157462127
9,006429458;0,030077372;-0,00450104;0,161460335;0,164299566
9,016443458;0,059320058;-0,039554514;0,104107336;0,126181481
9,026457458;0,036267314;-0,054410315;0,013090162;0,066686976
9,036471458;0,063093951;-0,080311142;-0,007146467;0,102380653
9,046485458;0,034444559;-0,066313857;-0,079257839;0,108930071
9,056499458;-0,096548393;0,011868678;-0,189304776;0,212835044
9,066513458;-0,187252879;0,090381947;-0,261536016;0,334116184
9,076527458;-0,197932781;0,113980433;-0,23048964;0,324490984
9,086542458;-0,130778314;0,09270395;-0,140226756;0,212980123
9,096556458;-0,023235284;0,039018251;-0,036021187;0,057964026
9,106570458;0,042642556;-0,035667942;0,048105043;0,073516562
9,116584458;0,092588778;-0,086441289;0,118616032;0,173535418
9,126598458;0,132596505;-0,102540136;0,173444788;0,241204078
9,136612458;0,10830116;-0,092056297;0,135581728;0,196432961
9,146626458;0,032650802;-0,04080019;0,041166152;0,066523548
9,156640458;-0,073210941;0,016763529;-0,061146673;0,09684923
9,166654458;-0,133181876;0,043489617;-0,150601471;0,205692882
9,176668458;-0,082852013;0,041646282;-0,135976415;0,164585705
9,186682458;-0,007032147;0,023710459;-0,124113584;0,12655362
9,196696458;0,074750773;-0,026772646;-0,086679125;0,117548813
9,206711458;0,138982213;-0,040374074;-0,037530354;0,149514711
9,216725458;0,152276196;0,02312223;0,067434184;0,168136987
9,226739458;0,078321224;-0,002460581;0,100918849;0,127768865
9,236753458;0,061967677;0,004190919;0,054955056;0,082931387
9,246767458;0,019091375;0,041738302;0,042047912;0,062246232
9,256781458;-0,086123877;0,026874534;0,034033719;0,096425395
9,266795458;-0,09734726;0,025665257;0,085726613;0,13222801
9,276809458;-0,058144726;0,035825379;0,092336306;0,114848859
9,286823458;-0,052746613;0,01641752;0,068390788;0,087914959
9,296837458;-0,036698283;0,008606809;0,017991883;0,041767799
9,306851458;0,003990291;0,044575298;-0,023843776;0,050709026
9,316866458;-0,034050767;0,041219654;-0,054415358;0,076285948
9,326880458;-0,05290442;0,006109171;-0,071125531;0,088854042
9,336894458;-0,049192767;0,056046805;-0,055909907;0,093204561
9,346908458;-0,073354906;0,065166926;-0,058044725;0,114003774
9,356922458;-0,102912823;0,082041844;-0,060968918;0,145048689
9,366936458;-0,119518787;0,115357744;-0,090672773;0,189245083
9,376950458;-0,169885661;0,138135938;-0,132213732;0,255779488
9,386964458;-0,166341207;0,141220052;-0,216821188;0,307610026
9,396978458;-0,092843168;0,110428834;-0,159329025;0,21494213
9,406992458;0,033490882;0,063421898;-0,021897823;0,074989939
9,417006333;0,138812918;0,066045178;0,020041916;0,15502474
9,427021333;0,153352769;0,069534942;-0,093061945;0,192386864
9,437035333;0,12082892;0,040668335;-0,132685018;0,184007759
9,447049333;0,059502367;0,052755553;-0,080676373;0,113279995
9,457063333;-0,006857901;0,039416519;0,045524667;0,060606832
9,467077333;-0,024206669;0,028037765;0,2049414;0,20826199
9,477091333;-0,083730584;0,075274277;0,224293345;0,250967193
9,487105333;-0,186167891;0,143755551;0,032426319;0,237435482
9,497119333;-0,263282634;0,22117254;-0,173444788;0,385120932
9,507133333;-0,311727894;0,310456673;-0,316689293;0,542079084
9,517147333;-0,239995988;0,316557584;-0,273639168;0,482374515
9,527161333;-0,109481658;0,305877279;-0,089727863;0,337043369
9,537176333;0,02405333;0,254746741;0,112098725;0,279357457
9,547190333;0,105180547;0,209135974;0,142524712;0,27406951
9,557204333;0,127433505;0,180568524;0,017288463;0,221682614
9,567218333;0,114858109;0,183357208;-0,081535329;0,23121475
9,577232333;0,077454028;0,229663209;-0,119254548;0,270122126
9,587246333;0,02358027;0,259870948;-0,107795175;0,282327361
9,597260333;0,03245106;0,275871634;-0,03084874;0,279481439
9,607274333;0,087706517;0,260921839;-0,002556403;0,275280174
9,617288333;0,167053654;0,19098205;0,037508134;0,256491573
9,627302333;0,215712922;0,111864471;0,087459143;0,258253415
9,637317333;0,229363009;0,121574577;0,131628426;0,291056369
9,647331333;0,149164673;0,129712878;0,157401783;0,252687261
9,657345333;-0,008223538;0,250997141;0,17673911;0,307089407
9,667359333;-0,172329944;0,386929556;0,230445201;0,48220025
9,677373333;-0,316775101;0,504845603;0,208814011;0,631521051
9,687387333;-0,319084495;0,615837085;0,056443757;0,69588514
9,697401333;-0,175448392;0,654559174;-0,170863243;0,698873449
9,707415333;0,055898482;0,691512261;-0,40317429;0,802410965
9,717429333;0,327701098;0,789110111;-0,676659676;1,089931693
9,727443333;0,51070137;0,935961471;-0,97727088;1,446339565
9,737457333;0,572276315;1,147476165;-1,210259035;1,763215432
9,747471333;0,598711321;1,354356355;-1,208139419;1,911108903
9,757486333;0,589784413;1,498402952;-1,028869634;1,910923804
9,767500333;0,567890647;1,485676925;-0,804299716;1,782311349
9,777514333;0,483681094;1,348803108;-0,61434239;1,559049005
9,787528333;0,282370449;1,171254013;-0,453885437;1,287470786
9,797542333;0,051722176;1,0353292;-0,160644064;1,048993923
9,807556333;-0,130119917;0,898663909;0,201443596;0,930111572
9,817570333;-0,258422099;0,782842335;0,578963227;1,007383999
9,827584333;-0,367200758;0,605662199;0,802929713;1,070681661
9,837598333;-0,421432221;0,464761076;0,778665522;0,999963984
9,847612333;-0,474912463;0,404256354;0,660083989;0,908116688
9,857626333;-0,566330501;0,37954021;0,479582781;0,833535032
9,867641333;-0,61521611;0,38708067;0,343726818;0,80403385
9,877655333;-0,587645137;0,467047702;0,270224394;0,79779796
9,887669333;-0,462049904;0,50665707;0,124230528;0,696867796
9,897683333;-0,248879243;0,49286612;-0,056643732;0,555037298
9,907697333;-0,056635258;0,473449819;-0,143171414;0,497855739
9,917711333;0,106840781;0,46726986;-0,147866728;0,501618026
9,927725333;0,218402842;0,522684544;-0,233495108;0,61271437
9,937739333;0,247587538;0,628779093;-0,371865959;0,771328093
9,947753333;0,255770058;0,688553205;-0,493281053;0,88478813
9,957767333;0,285922377;0,715669229;-0,497564138;0,917335338
9,967782333;0,317740695;0,68561454;-0,353816773;0,834393646
9,977796333;0,331406735;0,564297241;-0,176594099;0,677825402
9,987810333;0,361763907;0,479317829;0,081628885;0,606037936
9,997824333;0,357105284;0,419898862;0,273763129;0,615455513
10,00783833;0,391301482;0,396094883;0,364575065;0,665524594
10,01785233;0,364304339;0,382587011;0,223440821;0,573599401
10,02786633;0,295239915;0,501624847;0,049379736;0,584151053
10,03788033;0,125025256;0,622933924;-0,030636486;0,63609479
10,04789433;0,005565447;0,69551183;-0,001252474;0,695535225
10,05790833;-0,041081295;0,753123496;0,021023079;0,754536044
10,06792233;0,060658275;0,78385478;-0,047652469;0,787641099
10,07793733;0,188365037;0,768197471;-0,105382029;0,797943679
10,08795133;0,299077625;0,734254823;-0,117272927;0,801455246
10,09796533;0,34417603;0,654282455;-0,017001364;0,739480707
10,10797933;0,323741802;0,696095674;0,221064513;0,798891395
10,11799333;0,235258793;0,675130263;0,343263718;0,793081051
10,12800733;0,14025369;0,625056974;0,342421135;0,726374251
10,13802133;0,06967375;0,633563942;0,309064524;0,708363311
10,14803533;-0,03061519;0,725466385;0,190423349;0,750666249
10,15804933;-0,09898776;0,814245976;0,019151385;0,820464418
10,16806333;-0,159418981;0,889049406;-0,141849359;0,914300004
10,17807733;-0,134394332;0,955242445;-0,289015591;1,007015381
10,18809233;-0,079977905;1,005973984;-0,323148712;1,059625034
10,19810633;0,026298837;1,070502687;-0,299548765;1,111933943
10,20812033;0,108109691;1,016489763;-0,285368682;1,061307886
10,21813433;0,09392494;0,998342198;-0,199511676;1,022405961
10,22814833;-0,067806798;1,011091906;0,002560496;1,013366252
10,23816233;-0,33797462;0,953070643;0,184007784;1,027827494
10,24817633;-0,511131835;0,843709657;0,289043072;1,027933673
10,25819033;-0,501287755;0,724376318;0,365176159;0,953605836
10,26820433;-0,34368808;0,663199385;0,357841997;0,82825468
10,27821833;-0,109357606;0,668595488;0,132459315;0,690307528
10,28823233;0,04643527;0,622592227;-0,298523748;0,692021491
10,29824733;0,043900352;0,585263602;-0,490070347;0,764610796
10,30826133;-0,102874779;0,6545094;-0,364099102;0,755998631
10,31827533;-0,338982095;0,669358989;-0,070311014;0,75358739
10,32828933;-0,487900591;0,661331565;0,209296407;0,84806333
10,33830333;-0,397909932;0,61406706;0,429004365;0,848207176
10,34831733;-0,19677876;0,446930065;0,55785244;0,741395784
10,35833133;0,02863937;0,274265368;0,614914833;0,673915393
10,36834533;0,252584751;0,229846884;0,622678766;0,710181309
10,37835933;0,393727602;0,264894839;0,490974911;0,682822864
10,38837333;0,431920079;0,423020179;0,252224325;0,655071093
10,39838733;0,377746576;0,616900693;-0,059350408;0,725797088
10,40840233;0,287109435;0,777455295;-0,36466979;0,905457133
10,41841579;0,250038234;0,901474447;-0,552136787;1,086292008
10,42842979;0,35035566;0,919917588;-0,499271525;1,103752469
10,43844379;0,563686024;0,828359546;-0,356052749;1,063341446
10,44845779;0,764050334;0,654404369;-0,136041319;1,015147886
10,45847179;0,827897909;0,498485294;0,161178499;0,979735191
10,46848579;0,776365155;0,400161403;0,430771394;0,973876786
10,47849979;0,638422759;0,328643633;0,587598395;0,927826563
10,48851379;0,395887892;0,254803532;0,656934679;0,808217319
10,49852779;0,2859985;0,324284753;0,592096074;0,733166764
10,50854279;0,219337464;0,255818353;0,312741253;0,459738017
10,51855679;0,250437525;0,198106444;-0,089720262;0,331684854
10,52857079;0,468158856;0,342725373;-0,408294112;0,709462809
10,53858479;0,668458152;0,485308191;-0,571990423;1,004755386
10,54859879;0,687058437;0,474118704;-0,430660881;0,939311789
10,55861279;0,651634324;0,525111394;-0,157134565;0,851504868
10,56862679;0,527384938;0,590040558;0,044214306;0,792614432
10,57864079;0,322922023;0,68449838;0,202520068;0,783473703
10,58865479;0,051088421;0,768402051;0,245680706;0,808338263
10,59866879;-0,137721937;0,797180146;0,200190538;0,833390526
10,60868279;-0,167515474;0,738304239;0,173193943;0,776627791
10,61869779;-0,157556807;0,686947267;0,156154572;0,72187599
10,62871179;-0,120936152;0,632595059;0,147701837;0,660770682
10,63872579;-0,067291384;0,627689318;0,097301177;0,63874058
10,64873979;-0,081622581;0,671077924;0,022303035;0,676391344
10,65875379;-0,151367475;0,688027759;-0,077979053;0,7087842
10,66876779;-0,164595685;0,720646525;-0,101575491;0,746150611
10,67878179;-0,133361577;0,69426133;-0,101953806;0,714267935
10,68879579;-0,113377055;0,615831749;-0,096242831;0,633534358
10,69880979;-0,099589759;0,581654847;0,003241696;0,590127943
10,70882379;-0,204034607;0,626758953;0,211580914;0,692259625
10,71883779;-0,365208392;0,692501537;0,381254833;0,870798941
10,72885279;-0,403507874;0,767884792;0,406496678;0,957969314
10,73886679;-0,274397862;0,794387223;0,259223442;0,879512388
10,74888079;-0,102199024;0,767555374;0,101241031;0,780919739
10,75889479;0,012908788;0,787513164;-0,073113;0,791005139
10,76890879;0,084979065;0,863692151;-0,219258308;0,895131152
10,77892279;0,147701033;0,987897317;-0,294965717;1,041518833
10,78893679;0,171669629;1,140814139;-0,433374574;1,232372056
10,79895079;0,040755696;1,254950766;-0,59741704;1,390492564
10,80896479;-0,11635093;1,296357823;-0,677377714;1,467283787
10,81897879;-0,202436343;1,34755312;-0,472885965;1,442394197
10,82899279;-0,181034182;1,322305866;-0,092173753;1,337819935
10,83900779;-0,122337639;1,188414495;0,193955067;1,210336349
10,84902179;-0,083960133;1,095067717;0,271204972;1,131271296
10,85903579;-0,123445576;0,971471246;0,035082709;0,979911214
10,86904979;-0,169018081;0,867268016;-0,239950435;0,915585678
10,87906379;-0,303110779;0,849958722;-0,486176101;1,0250235
10,88907779;-0,392712415;0,829932813;-0,524169554;1,057244171
10,89909179;-0,409485482;0,79003134;-0,352129267;0,956986363
10,90910579;-0,354450648;0,700098605;0,073678426;0,78816358
10,91911979;-0,235976009;0,613977889;0,58644357;0,881231858
10,92913379;-0,067893446;0,569158543;0,974353704;1,130449516
10,93914879;-0,03968794;0,558697436;1,160202776;1,288327768
10,94916279;-0,130327311;0,654670783;0,911548176;1,129822605
10,95917679;-0,175818502;0,838963837;0,27016943;0,898756912
10,96919079;-0,239070867;1,068384898;-0,375112333;1,157285804
10,97920479;-0,341937168;1,262888507;-0,88650689;1,580412248
10,98921879;-0,441655986;1,330272405;-1,163044522;1,821361371
10,99923279;-0,430167084;1,27022954;-1,2802619;1,854075872
11,00924679;-0,266431926;1,160595197;-1,236189682;1,716430049
11,01926079;-0,035469576;0,977066958;-0,860248799;1,302284887
11,02927479;0,202193355;0,837152589;-0,2461134;0,895699959
11,03928879;0,350732988;0,696403896;0,309818814;0,839034989
11,04930379;0,513376179;0,569378691;0,686268405;1,028937082
11,05931779;0,615398105;0,492580337;0,789823179;1,115872247
11,06933179;0,699867275;0,477496348;0,645027409;1,064836759
11,07934579;0,699987581;0,511891936;0,361555563;0,939541587
11,08935979;0,625517004;0,570373814;0,068183797;0,849262527
11,09937379;0,554731123;0,690035547;-0,106759633;0,891780968
11,10938779;0,54722666;0,810538841;-0,162556688;0,991390391
11,11940179;0,586745287;0,898782754;-0,069062634;1,075569671
11,12941579;0,674226942;1,015029713;0,038400419;1,219156216
11,13942979;0,694443544;1,11271973;0,065290595;1,313263071
11,14944479;0,609978613;1,190324853;-0,046225748;1,338313859
11,15945879;0,520821;1,250925835;-0,227355532;1,373957967
11,16947279;0,489611486;1,229774848;-0,4399562;1,394857355
11,17948679;0,561536222;1,152817815;-0,706116779;1,463869103
11,18950079;0,6463768;1,112991041;-0,848731538;1,541718926
11,19951479;0,60483204;1,150414317;-0,811404667;1,532205088
11,20952879;0,603783963;1,133882777;-0,688420181;1,457452425
11,21954279;0,647896637;1,000270391;-0,501082408;1,292824229
11,22955679;0,702000631;0,834498173;-0,255922689;1,120128791
11,23957079;0,724992614;0,669084389;-0,053569851;0,988007054
11,24958479;0,656463685;0,576627703;0,089562387;0,878331088
11,25959979;0,525858047;0,588598854;0,212305384;0,817342568
11,26961379;0,274771152;0,664671495;0,246037971;0,760146082
11,27962779;0,124514849;0,791606653;0,067593813;0,80418528
11,28964179;0,145377057;0,876079477;-0,285542344;0,932836625
11,29965579;0,154395656;0,91402089;-0,541452169;1,073518821
11,30966979;0,184394065;0,932117584;-0,595096865;1,121153264
11,31968379;0,173801249;0,964161057;-0,43428557;1,071642372
11,32969779;0,154498384;0,968738257;-0,199796435;1,001120461
11,33971179;0,223951941;0,923077789;0,044447025;0,95089569
11,34972579;0,31375315;0,79782239;0,184191971;0,876862752
11,35974079;0,39831255;0,626536978;0,201810801;0,769369268
11,36975479;0,449186213;0,514636546;0,312006842;0,750977562
11,37976879;0,384118178;0,535833361;0,583229356;0,880238971
11,38978279;0,301455469;0,564314271;0,752750663;0,987906654
11,39979679;0,254034806;0,588063103;0,796880184;1,022433334
11,40981079;0,190787776;0,590199822;0,688482161;0,926684138
11,41982529;0,142140623;0,520263029;0,476518255;0,719685503
11,42983929;0,141410671;0,484814577;0,37246179;0,627510906
11,43985329;0,179866347;0,482309557;0,435764916;0,674437153
11,44986729;0,204514773;0,426208592;0,539611466;0,717398488
11,45988129;0,298311859;0,400864713;0,551330456;0,7440751
11,46989629;0,402910508;0,451316463;0,368091581;0,708177124
11,47991029;0,478995939;0,579434951;0,042005813;0,752958472
11,48992429;0,459711347;0,707765986;-0,260587013;0,883273913
11,49993829;0,324434186;0,877594929;-0,468149135;1,046228471
11,50995229;0,233444932;1,028322481;-0,58696982;1,206845985
11,51996629;0,218147885;1,015342174;-0,580768263;1,189873945
11,52998029;0,255292615;0,876525985;-0,583181993;1,083315909
11,53999429;0,432232503;0,775691482;-0,535732423;1,03707832
11,55000829;0,480358523;0,702647699;-0,501199937;0,987754765
11,56002229;0,339356244;0,621249925;-0,438551114;0,832731175
11,57003729;0,165250427;0,580956689;-0,272970246;0,662820589
11,58005129;0,093652258;0,538944591;-0,130099964;0,562279306
11,59006529;0,121980995;0,534055076;-0,009619254;0,54789298
11,60007929;0,195903798;0,489233464;-0,031253952;0,527924701
11,61009329;0,247129207;0,333584311;-0,098020969;0,42656705
11,62010729;0,209327872;0,207195794;-0,027127572;0,295777214
11,63012129;0,077531083;0,156675924;0,24804415;0,303453974
11,64013529;-0,165592965;0,164909535;0,519414014;0,569567469
11,65014929;-0,342549116;0,196539682;0,636326167;0,748918376
11,66016329;-0,44635934;0,170818292;0,668328563;0,82163168
11,67017729;-0,423577089;0,136952169;0,568083898;0,721729009
11,68019229;-0,296273191;0,156158226;0,351129978;0,485237526
11,69020629;-0,253728996;0,297609974;0,133787802;0,413339178
11,70022029;-0,299447535;0,503278841;-0,189594798;0,615552277
11,71023429;-0,364143066;0,720037026;-0,515520937;0,95750474
11,72024829;-0,374639549;0,887326743;-0,624443455;1,147882036
11,73026229;-0,279154627;0,978538483;-0,501565388;1,134474639
11,74027629;-0,080153559;1,037990925;-0,249959114;1,070667695
11,75029029;0,104629017;1,074645366;0,013217046;1,079807661
11,76030429;0,316773566;1,129197111;0,124729296;1,179401969
11,77031829;0,455322025;1,121285389;-0,02521144;1,210468788
11,78033329;0,497339934;1,123659359;-0,192572785;1,243801287
11,79034729;0,47032207;1,212968269;-0,062567546;1,302462886
11,80036129;0,383412784;1,313143133;0,217878365;1,38521523
11,81037529;0,318646137;1,34613634;0,417801685;1,445052474
11,82038929;0,186769021;1,286595604;0,454316962;1,377176393
11,83040329;0,044759486;1,240921249;0,34151657;1,287836374
11,84041729;-0,095086982;1,205450942;0,112963529;1,214460484
11,85043129;-0,256193598;1,090587726;-0,119243438;1,126603633
11,86044529;-0,443056979;0,947620526;-0,21308014;1,067561377
11,87045929;-0,553036052;0,813852897;-0,116537932;0,990851402
11,88047329;-0,542396202;0,641655977;0,055336879;0,842008434
11,89048829;-0,442971902;0,477935035;0,100663911;0,659377909
11,90050229;-0,324982326;0,393785562;0,085037811;0,517602174
11,91051629;-0,343432191;0,405149991;0,021762752;0,531569189
11,92053029;-0,457933318;0,523559324;-0,054791919;0,697724476
11,93054429;-0,621054555;0,648418867;-0,142444021;0,909090802
11,94055829;-0,784505064;0,701934412;-0,308320173;1,09691451
11,95057229;-0,834729576;0,726926069;-0,496737927;1,213236804
11,96058629;-0,818925941;0,801785048;-0,602469619;1,294785156
11,97060029;-0,865343478;0,957911845;-0,677552546;1,457906681
11,98061429;-0,913235975;1,087568151;-0,636734887;1,556353349
11,99062929;-0,997875152;1,135971037;-0,437574629;1,57405736
12,00064329;-0,976568191;1,083887475;0,014620963;1,459010371
12,01065729;-0,890536279;0,987535082;0,467239893;1,409465686
12,02067129;-0,746520162;0,888624605;0,735178025;1,373838699
12,03068529;-0,536019887;0,790358711;0,754810637;1,217260575
12,04069929;-0,331194408;0,640746954;0,607229252;0,94285405
12,05071329;-0,168633389;0,573337767;0,328007163;0,681719968
12,06072729;-0,073644329;0,645324009;0,005814471;0,649538583
12,07074129;-0,120640594;0,746131176;-0,139842594;0,768649358
12,08075529;-0,214813857;0,919254075;-0,05961938;0,945900375
12,09076929;-0,320418866;1,083068353;0,091945712;1,133207537
12,10078429;-0,491087835;1,194216468;0,134052681;1,298187334
12,11079829;-0,606687289;1,226775957;0,106987674;1,372769128
12,12081229;-0,729803411;1,175038843;0,002558742;1,383233837
12,13082629;-0,773145385;1,144980134;-0,109693766;1,385917031
12,14084029;-0,720005378;1,189437758;-0,212349238;1,406507064
12,15085429;-0,597182018;1,250311585;-0,483450714;1,467525133
12,16086829;-0,373304922;1,256799071;-0,862547339;1,569359226
12,17088229;-0,054859984;1,250831402;-1,164289979;1,709725116
12,18089629;0,26693581;1,234036445;-1,170689172;1,721805393
12,19091029;0,496035384;1,221427874;-0,771720784;1,527576552
12,20092529;0,599969276;1,226225953;-0,179782001;1,376922216
12,21093929;0,565861956;1,224836509;0,224873389;1,367842194
12,22095329;0,437564762;1,11907463;0,360476752;1,254485726
12,23096729;0,127483919;0,9527489;0,292132156;1,00465109
12,24098129;-0,19524964;0,900411496;0,17548839;0,937901625
12,25099529;-0,447580385;0,914506721;-0,016616617;1,018296055
12,26100929;-0,423322187;0,977415671;-0,234455806;1,090647786
12,27102329;-0,16170897;1,100598379;-0,483381717;1,212899199
12,28103729;0,249142148;1,126918158;-0,598558416;1,300110966
12,29105129;0,74867603;1,032745023;-0,51468537;1,375492316
12,30106529;1,206714014;0,980368808;-0,131813782;1,560338612
12,31108029;1,401723188;1,006420931;0,303505576;1,752092069
12,32109429;1,361332522;1,117371555;0,526587378;1,838216444
12,33110829;1,065428327;1,171693066;0,493427818;1,658756514
12,34112229;0,735174078;1,197164122;0,365294858;1,451593329
12,35113629;0,451227768;1,089361346;0,259756708;1,207388996
12,36115029;0,329113457;0,952321103;0,405480432;1,086114879
12,37116429;0,159380042;0,843223388;0,60005238;1,047134441
12,38117829;-0,063932652;0,744069009;0,76166065;1,066701936
12,39119229;-0,210400251;0,659695515;0,922073164;1,153119836
12,40120629;-0,22794336;0,562770241;1,05447693;1,216795018
12,41122129;-0,107702533;0,541507864;1,072876949;1,206604968
12,42123479;0,035854322;0,575956077;0,874738199;1,047939813
12,43124879;0,050812487;0,631227249;0,329640875;0,713927766
12,44126279;0,017198397;0,732944243;-0,287650266;0,787556806
12,45127679;0,019741424;0,864565652;-0,63865102;1,075052843
12,46129079;-0,004782785;0,929992121;-0,611084906;1,112804108
12,47130479;-0,002503814;0,956288658;-0,311429722;1,005724982
12,48131879;-0,070687721;0,919367073;-0,006248919;0,922101739
12,49133279;-0,208653249;0,89203821;0,132911305;0,925707168
12,50134679;-0,397134811;0,861504927;0,139446153;0,958828466
12,51136079;-0,624234929;0,859374275;0,278470722;1,098061625
12,52137579;-0,907396945;0,959819134;0,409443675;1,382847102
12,53138979;-1,17681837;1,072600302;0,167312229;1,601051612
12,54140379;-1,274716986;1,165099015;-0,283152003;1,750009761
12,55141779;-1,2917375;1,118266618;-0,622834302;1,818523732
12,56143179;-1,333374061;0,979570297;-0,719326224;1,804127093
12,57144579;-1,288439816;0,84513762;-0,564087326;1,640892827
12,58145979;-1,10591401;0,77408781;-0,164116141;1,359849934
12,59147379;-0,840476951;0,742960231;0,265613864;1,152797525
12,60148779;-0,584930384;0,687357888;0,409417947;0,9910739
12,61150179;-0,382337006;0,613737277;0,168196328;0,74239143
12,62151679;-0,301498482;0,625527017;-0,248503742;0,737522538
12,63153079;-0,421485065;0,757032432;-0,630191853;1,071396068
12,64154479;-0,593362873;0,889551097;-0,996283101;1,461492617
12,65155879;-0,679939671;0,989866367;-1,26299098;1,742785011
12,66157279;-0,71541144;0,987002255;-1,338263941;1,810231298
12,67158679;-0,646892451;0,804429085;-1,128102731;1,529114701
12,68160079;-0,492877887;0,567045505;-0,650372348;0,993706903
12,69161479;-0,39188043;0,340764034;-0,034558214;0,520465818
12,70162879;-0,382829415;0,144009393;0,54334082;0,680085519
12,71164279;-0,525030776;0,005314388;0,8986346;1,040783216
12,72165679;-0,71329314;-0,026427149;1,024036911;1,248253617
12,73167179;-0,821945443;-0,014615554;0,820305884;1,161339601
12,74168579;-0,832667556;0,036347243;0,305293069;0,887614916
12,75169979;-0,74550377;0,137816899;-0,243147692;0,796172198
12,76171379;-0,649075144;0,189977206;-0,614504943;0,91378674
12,77172779;-0,591011086;0,285169658;-0,756915634;1,001766996
12,78174179;-0,500737678;0,360821518;-0,783688281;0,997545844
12,79175579;-0,411790637;0,301602672;-0,724820268;0,88651008
12,80176979;-0,333259754;0,171090407;-0,486695334;0,614171262
12,81178379;-0,300761112;0,127293373;-0,130826188;0,351818619
12,82179779;-0,246446527;0,130906587;0,160818896;0,322079404
12,83181279;-0,256106383;0,118345233;0,36140412;0,458485563
12,84182679;-0,248750805;0,139842083;0,395571156;0,48775948
12,85184079;-0,221213196;0,169669534;0,263980737;0,383938613
12,86185479;-0,170734147;0,148144763;0,136451794;0,264038088
12,87186879;-0,087230225;0,108831959;0,172230906;0,221623538
12,88188279;0,03163221;0,116815967;0,292753716;0,316782741
12,89189679;0,19620217;0,1822974;0,438520709;0,513836594
12,90191079;0,290357252;0,308369217;0,482557844;0,642075526
12,91192479;0,322416531;0,434934392;0,344430238;0,641679463
12,92193879;0,200507767;0,563335082;0,129245685;0,611763211
12,93195279;0,042960498;0,673018907;0,162346188;0,693654336
12,94196779;-0,150132515;0,617565302;0,292223958;0,699515201
12,95198179;-0,219913397;0,481690848;0,403664287;0,665832435
12,96199579;-0,150513653;0,375422308;0,495116494;0,639325122
12,97200979;-0,073879118;0,290339766;0,562932501;0,637689818
12,98202379;-0,073059434;0,321120971;0,478919706;0,581223231
12,99203779;-0,18633598;0,410931937;0,194415243;0,491307888
13,00205179;-0,406901123;0,449329945;-0,054953887;0,60867549
13,01206579;-0,594022073;0,460487675;-0,102674768;0,758586337
13,02207979;-0,557108272;0,451510591;0,037555497;0,718082067
13,03209379;-0,430824311;0,371565339;0,291716419;0,63935034
13,04210879;-0,316836679;0,307593803;0,553478138;0,708051889
13,05212279;-0,336706139;0,27621779;0,469087613;0,640086307
13,06213679;-0,396146156;0,255706927;0,148511091;0,494341333
13,07215079;-0,5343364;0,28440952;-0,048513764;0,60725427
13,08216479;-0,590468209;0,29865933;0,09299938;0,668205796
13,09217879;-0,563636688;0,290766978;0,40778365;0,75400216
13,10219279;-0,411750986;0,264081601;0,537463784;0,726736049
13,11220679;-0,208003276;0,213582708;0,361576613;0,468636942
13,12222079;0,030529044;0,189021186;0,01865905;0,192377731
13,13223479;0,226986006;0,229469301;-0,337718804;0,467153933
13,14224979;0,328485319;0,324448694;-0,551717541;0,719417685
13,15226379;0,2783015;0,465410007;-0,590120884;0,801436746
13,16227779;0,079754633;0,602815482;-0,498579215;0,786338693
13,17229179;-0,15003727;0,687758568;-0,293243127;0,762571021
13,18230579;-0,349145652;0,589037687;-0,122722532;0,695649986
13,19231979;-0,420257333;0,538872524;-0,026317148;0,68388041
13,20233379;-0,392878586;0,474342214;-0,165174487;0,637680743
13,21234779;-0,22495832;0,453199705;-0,511804447;0,719680492
13,22236179;-0,054422265;0,441562869;-1,006516898;1,100461638
13,23237579;0,074161753;0,468998589;-1,36089442;1,441351194
13,24238979;0,133203373;0,483809733;-1,292934571;1,38690115
13,25240479;0,136785889;0,487247749;-0,894086051;1,027380463
13,26241879;0,091997734;0,431636928;-0,373174565;0,57795612
13,27243279;0,015254563;0,391370808;0,179087936;0,430669595
13,28244679;-0,040937124;0,255521131;0,503168694;0,565814132
13,29246079;-0,060538343;0,069792805;0,420256931;0,430292708
13,30247479;-0,05789902;-0,128650877;0,066806193;0,156097444
13,31248879;-0,072166518;-0,149080172;-0,150506161;0,223796802
13,32250279;-0,174859815;-0,125207013;-0,139401714;0,256291999
13,33251679;-0,291890009;-0,126097837;0,03543705;0,319931596
13,34253079;-0,289743094;-0,063630716;0,346046993;0,455794307
13,35254579;-0,208231263;0,007268674;0,561599336;0,59900493
13,36255979;-0,078032043;0,006740816;0,631845446;0,636681322
13,37257379;0,049734808;0,024924634;0,670265746;0,672570411
13,38258779;0,039042297;0,016745402;0,50734653;0,509122
13,39260179;-0,126498554;0,05211331;0,218111669;0,257469185
13,40261579;-0,385287402;0,105915295;-0,10456108;0,413034443
13,41262979;-0,590804204;0,241540731;-0,33623595;0,721419536
13,42264454;-0,655425001;0,365946091;-0,424190353;0,862227307
13,43265854;-0,555099059;0,4521111;-0,458626944;0,850222374
13,44267254;-0,322659483;0,461319295;-0,505183645;0,756396159
13,45268754;-0,023355515;0,468802561;-0,501207538;0,686680652
13,46270154;0,242755764;0,39959214;-0,529655412;0,706497767
13,47271554;0,417151072;0,291428152;-0,418841904;0,659070501
13,48272954;0,423932637;0,217666403;-0,010807409;0,476670057
13,49274354;0,232109154;0,159914478;0,425966737;0,510778778
13,50275754;-0,041470829;0,147696721;0,670753403;0,688072873
13,51277154;-0,345840221;0,118498649;0,66216092;0,75637588
13,52278554;-0,656324522;0,090890582;0,424851673;0,787097147
13,53279954;-0,896813119;0,082274417;0,140381123;0,911454722
13,54281354;-0,958291256;0,072760267;-0,110279072;0,967356016
13,55282754;-0,842596712;0,07645673;-0,205681073;0,870700612
13,56284254;-0,587667904;0,175366184;-0,123854553;0,625657106
13,57285654;-0,354279361;0,253427536;-0,141702009;0,458059866
13,58287054;-0,150744289;0,304294511;-0,233742446;0,412255408
13,59288454;-0,013106351;0,382541805;-0,347592997;0,517040521
13,60289854;0,032969854;0,462915;-0,526938795;0,702169355
13,61291254;-0,036078344;0,503357121;-0,638609505;0,8139362
13,62292654;-0,123810826;0,485233968;-0,598207583;0,780149625
13,63294054;-0,201779866;0,443272887;-0,550694863;0,735167191
13,64295454;-0,245569591;0,463952296;-0,549259372;0,759764447
13,65296854;-0,253396874;0,481930876;-0,470910775;0,719877978
13,66298354;-0,313060145;0,417918337;-0,415661019;0,667410274
13,67299754;-0,315899992;0,382438455;-0,356236351;0,610701494
13,68301154;-0,329858392;0,34578153;-0,315619837;0,57270176
13,69302554;-0,315834284;0,292138004;-0,297746068;0,523209928
13,70303954;-0,292543837;0,224526503;-0,176142694;0,408681166
13,71305354;-0,166453437;0,192012476;-0,110676683;0,277172989
13,72306754;-0,022745961;0,07432352;-0,067990254;0,103266834
13,73308154;0,117823113;-0,056426362;0,139666008;0,1912402
13,74309554;0,290887065;-0,165223457;0,439307159;0,552181904
13,75310954;0,556300772;-0,198646288;0,694613551;0,911821738
13,76312354;0,796741751;-0,206927261;1,043306994;1,328949131
13,77313854;0,840660772;-0,175253186;1,367480139;1,614752657
13,78315254;0,79305669;-0,072443494;1,502145608;1,700184814
13,79316654;0,63874823;0,019505873;1,3721813;1,513691283
13,80318054;0,43706033;0,182262243;1,035324376;1,138480487
13,81319454;0,25139826;0,362671212;0,513891903;0,677359861
13,82320854;0,119816721;0,436933628;0,01743055;0,453399235
13,83322254;0,154769037;0,458946349;-0,180940334;0,517034438
13,84323654;0,325449993;0,454443115;0,05125026;0,561304581
13,85325054;0,511994774;0,454489308;0,613936594;0,919574533
13,86326454;0,618283267;0,419108391;1,159842002;1,379550475
13,87327954;0,748036053;0,41193415;1,365879171;1,610861133
13,88329354;0,849304127;0,427135887;1,312276576;1,620442031
13,89330754;0,811274348;0,438336375;0,929797921;1,309514803
13,90332154;0,754021701;0,488954405;0,253776176;0,933824118
13,91333554;0,684756535;0,584961009;-0,425149296;0,995903016
13,92334954;0,630780229;0,695024318;-0,843186039;1,261707255
13,93336354;0,610814144;0,784148164;-0,883224263;1,329686941
13,94337754;0,673612253;0,796828436;-0,600272235;1,203750714
13,95339154;0,774265054;0,661464809;-0,07872925;1,021381595
13,96340554;0,846720388;0,492200195;0,414319668;1,063417714
13,97341954;0,924771069;0,364277296;0,561368371;1,141505115
13,98343454;0,966246539;0,261197462;0,382696171;1,071593602
13,99344854;0,845327143;0,163740165;-0,056576489;0,862896123
14,00346254;0,626648513;0,083955638;-0,568136523;0,850009422
14,01347654;0,462290554;0,065248933;-0,747818536;0,881590916
14,02349054;0,345945836;0,033665783;-0,452990813;0,570975116
14,03350454;0,38118156;-0,047747194;0,13083145;0,405827604
14,04351854;0,578739864;-0,147436812;0,695990571;0,917104311
14,05353254;0,731404159;-0,302566951;1,005789505;1,279887234
14,06354654;0,807178592;-0,382327066;1,099664798;1,416677074
14,07356054;0,87219868;-0,386140035;1,183192858;1,51979604
14,08357454;0,847696435;-0,353190829;1,215888149;1,523718149
14,09358954;0,744358227;-0,246273467;0,999389142;1,270235588
14,10360354;0,628632839;-0,075149877;0,388184368;0,742639788
14,11361754;0,532083687;0,116494662;-0,373068146;0,660199893
14,12363154;0,378019641;0,278427452;-1,170636547;1,261273413
14,13364554;0,284307632;0,440548377;-1,703607915;1,782468409
14,14365954;0,342691934;0,548943622;-1,721788663;1,839383881
14,15367354;0,498667215;0,524064304;-1,346523133;1,528540786
14,16368754;0,641747632;0,353184689;-0,68476684;1,002738786
14,17370154;0,683720847;0,169208188;0,241046788;0,744452256
14,18371554;0,647420382;0,038874482;1,09791648;1,275180369
14,19373054;0,574735106;-0,072559268;1,453196812;1,564406041
14,20374454;0,46507233;-0,118378927;1,338052272;1,421509664
14,21375854;0,287755223;-0,145800468;0,831082302;0,891492366
14,22377254;0,081691962;-0,117940386;0,086066921;0,167305189
14,23378654;-0,172735521;0,001072379;-0,594968811;0,619537405
14,24380054;-0,319981568;0,150674854;-0,904614547;0,971297377
14,25381454;-0,240555841;0,280654657;-0,747290533;0,833712954
14,26382854;-0,062306468;0,267231058;-0,479986238;0,552884548
14,27384254;0,145074464;0,118373811;-0,257207322;0,318142367
14,28385654;0,35068537;0,009796425;0,036581935;0,352724307
14,29387154;0,417010118;-0,101593764;0,401418371;0,587669499
14,30388554;0,363322299;-0,203882031;0,662892991;0,782941948
14,31389954;0,207565411;-0,127396942;0,6486252;0,692840553
14,32391354;-0,063413931;0,068740013;0,191431993;0,213055683
14,33392754;-0,336778279;0,212750064;-0,505419288;0,643529996
14,34394154;-0,487135995;0,32398998;-1,123975766;1,267119768
14,35395554;-0,501707475;0,366562534;-1,315700705;1,455041864
14,36396954;-0,478306041;0,370293496;-1,012979826;1,179839849
14,37398354;-0,490506768;0,362949247;-0,402978993;0,731246275
14,38399754;-0,506473102;0,3400707;0,071773403;0,614259315
14,39401154;-0,381433684;0,266938989;0,269268374;0,53782296
14,40402654;-0,267692622;0,158578389;0,294505541;0,428415639
14,41404054;-0,196578274;0,030850348;0,112008678;0,228343394
14,42405367;-0,165884923;0,013992826;-0,137488505;0,215908999
14,43406767;-0,130867557;0,072667734;-0,308527749;0,342923153
14,44408167;-0,098293595;0,121155916;-0,318626475;0,354772064
14,45409567;-0,08793803;0,167012705;-0,261706755;0,322671297
14,46410967;-0,13259519;0,210592296;-0,412337462;0,481614765
14,47412367;-0,195270033;0,23434427;-0,662254475;0,729128667
14,48413767;-0,203103767;0,225819615;-0,715783396;0,777554826
14,49415167;-0,177384131;0,146494972;-0,533892889;0,581349743
14,50416667;-0,11945328;0,077559369;-0,187862268;0,235747266
14,51418067;-0,016681083;0,016240934;0,170413007;0,171995987
14,52419467;0,079024535;-0,021912733;0,395827264;0,404232937
14,53420867;0,140899478;-0,015025152;0,435859056;0,458313795
14,54422267;0,118330688;0,068429088;0,407817564;0,430116097
14,55423667;0,01982535;0,191332591;0,436653108;0,47714478
14,56425067;-0,07535062;0,343300264;0,40754333;0,538167588
14,57426467;-0,072007803;0,496050294;0,25245529;0,56123497
14,58427867;0,016958826;0,581001859;-0,158355464;0,602434407
14,59429267;0,135239812;0,586666934;-0,817720245;1,015447831
14,60430667;0,282437729;0,613650519;-1,31833663;1,481333689
14,61432167;0,359635959;0,662036082;-1,360973357;1,555595794
14,62433567;0,366525331;0,658433174;-0,984317944;1,239659985
14,63434967;0,297799132;0,603197013;-0,29668246;0,735222035
14,64436367;0,275788275;0,490215796;0,453382577;0,72244478
14,65437767;0,348411644;0,364603278;0,884048721;1,017776186
14,66439167;0,453655824;0,188041339;0,779965358;0,921688186
14,67440567;0,599032516;0,094327283;0,446711488;0,753185731
14,68441967;0,662643754;0,140330544;0,051091216;0,679264101
14,69443367;0,662530464;0,215805966;-0,130887583;0,708978413
14,70444767;0,621060403;0,205072232;-0,052428474;0,656139763
14,71446267;0,512111755;0,164831401;0,133548651;0,554313163
14,72447667;0,38327775;0,171980061;0,311654255;0,523074899
14,73449067;0,342548202;0,253659816;0,417310519;0,596515416
14,74450467;0,370039654;0,270931176;0,382654656;0,597291916
14,75451867;0,479458089;0,243018615;0,182098668;0,56753681
14,76453267;0,591632938;0,248830455;-0,115318787;0,652107775
14,77454667;0,655350741;0,248171474;-0,256781645;0,746331352
14,78456067;0,673848188;0,242368989;-0,189474345;0,740752749
14,79457467;0,601538742;0,271982359;-0,08388591;0,665477353
14,80458867;0,48294884;0,337740731;-0,080155386;0,594754798
14,81460267;0,375490757;0,383384973;-0,185242131;0,567707666
14,82461767;0,371163525;0,397768539;-0,255422167;0,601018017
14,83463167;0,420604913;0,30082068;-0,259336878;0,578495627
14,84464567;0,48357716;0,167686158;-0,236899357;0,563991864
14,85465967;0,491571327;0,015574351;-0,129689489;0,50862982
14,86467367;0,418199844;-0,10209107;0,103779307;0,44281355
14,87468767;0,205381367;-0,185311713;0,429585578;0,510945893
14,88470167;-0,13952911;-0,178692665;0,733733178;0,767960818
14,89471567;-0,558421337;-0,085437907;0,886788141;1,051440551
14,90472967;-0,911827453;0,082946993;0,736826355;1,175254265
14,91474367;-1,068899088;0,226886147;0,235810606;1,117868161
14,92475867;-0,993691469;0,316430553;-0,413297575;1,121769101
14,93477267;-0,742850742;0,34024597;-1,00078078;1,29195848
14,94478667;-0,384077613;0,260516261;-1,408135244;1,482642641
14,95480067;0,018056823;0,160958498;-1,558247303;1,56664238
14,96481467;0,364670704;0,106111323;-1,436923426;1,486268235
14,97482867;0,596633403;0,064813754;-1,047164987;1,206949357
14,98484267;0,646386448;0,095334466;-0,392875589;0,762401029
14,99485667;0,539767733;0,158580289;0,234755183;0,609595694
15,00487067;0,380043765;0,185956222;0,525427875;0,674601683
15,01488467;0,242724171;0,172555427;0,506451321;0,587523054
15,02489967;0,05652127;0,135201367;0,234813656;0,276787854
15,03491367;-0,166799793;0,160806032;-0,31530818;0,39127995
15,04492767;-0,365674269;0,259159707;-0,925546995;1,028357265
15,05494167;-0,390151554;0,425733725;-1,142106228;1,279794544
15,06495567;-0,255909715;0,528641797;-0,882752393;1,060284735
15,07496967;0,046445;0,602365831;-0,438911887;0,746756572
15,08498367;0,408177862;0,539023528;-0,064614657;0,67921321
15,09499767;0,67471533;0,406560266;0,188867989;0,810063667
15,10501167;0,739679285;0,369831566;0,347887697;0,897177062
15,11502567;0,608223645;0,372742018;0,59472849;0,928748938
15,12503967;0,492325654;0,31958498;0,585860603;0,829307998
15,13505467;0,415286432;0,220432575;0,144487038;0,491863644
15,14506867;0,181887163;0,291524485;-0,4175485;0,540755227
15,15508267;-0,19821374;0,437480781;-0,861586057;0,98641201
15,16509667;-0,58665407;0,561487069;-0,967120698;1,26283537
15,17511067;-0,841624978;0,613416922;-0,61978147;1,211916662
15,18512467;-0,770167398;0,534082046;0,161694809;0,951076582
15,19513867;-0,613733988;0,312831008;0,719153146;0,995848329
15,20515267;-0,401004571;0,144328432;1,108778853;1,187866115
15,21516667;-0,184601367;0,079229041;1,366549262;1,381235603
15,22518067;0,060760391;0,016154103;1,102467953;1,104259194
15,23519567;0,320511691;-0,032715025;0,374228818;0,49380687
15,24520967;0,382680676;0,034355608;-0,472895905;0,609307266
15,25522367;0,356361116;0,102407112;-1,221823073;1,276844581
15,26523767;0,209263278;0,176050308;-1,648084509;1,670618862
15,27525167;-0,027433418;0,367146086;-1,519038799;1,563018782
15,28526567;-0,237229305;0,455141273;-1,044350722;1,163657919
15,29527967;-0,223548191;0,341767855;-0,329276009;0,52459675
15,30529367;-0,19358682;0,198395296;0,516637756;0,586302926
15,31530767;-0,289144558;0,17882642;1,252740811;1,298053544
15,32532167;-0,250481489;-0,000513386;1,708275163;1,726541419
15,33533567;-0,417132507;-0,165873375;1,660979959;1,720571977
15,34535067;-0,473379835;-0,05880077;1,239777533;1,328380341
15,35536467;-0,326349478;0,043972377;0,701260666;0,774728387
15,36537867;-0,210418761;0,09931642;0,284412662;0,367464786
15,37539267;-0,033303529;0,175072215;0,17372604;0,248877766
15,38540667;0,046626904;0,138599038;0,132394996;0,197261746
15,39542067;0,017008034;0,119464609;0,086467456;0,148450958
15,40543467;0,047395538;0,280538882;-0,082705357;0,296291373
15,41544867;0,201544387;0,573001552;-0,374516501;0,71359199
15,42546692;0,093121514;0,425353218;-0,116953084;0,450860289
15,43548092;-0,033892454;0,407932608;0,235196064;0,472096282
15,44549592;-0,026283618;0,312036371;0,369276227;0,484171929
15,45550992;-0,162251701;0,188570366;0,244493136;0,348799787
15,46552392;-0,437535489;0,304630288;-0,226711754;0,579340259
15,47553792;-0,604746196;0,383965602;-0,70059116;1,001985787
15,48555192;-0,680028038;0,485134273;-0,815256813;1,167234795
15,49556592;-0,561067568;0,580606295;-0,738715591;1,094349674
15,50557992;-0,298702161;0,535943654;-0,417323382;0,742035974
15,51559392;-0,028099708;0,432926531;-0,011510244;0,433990162
15,52560792;0,19627674;0,325535984;0,151563923;0,409230813
15,53562192;0,378898551;0,281452656;0,071254755;0,477343639
15,54563592;0,409687723;0,183178502;-0,222599992;0,500948251
15,55564992;0,406488309;0,088745385;-0,65068459;0,772333428
15,56566492;0,225703365;0,095250851;-0,998969312;1,028569113
15,57567892;-0,218417734;0,164184114;-1,087938207;1,121727361
15,58569292;-0,456802284;0,362255183;-0,985403772;1,14495316
15,59570692;-0,51068825;0,396855643;-0,511935425;0,824848331
15,60572092;-0,387386881;0,335503732;0,154996238;0,53540189
15,61573492;-0,182606352;0,185917046;0,716907815;0,7628021
15,62574892;0,133264623;-0,058041655;1,003325488;1,013799945
15,63576292;0,343548259;-0,260310586;1,001502326;1,090318264
15,64577692;0,365776376;-0,224582344;0,667188941;0,793328853
15,65579092;0,209311171;-0,044882496;0,022724619;0,215271951
15,66580592;-0,161721267;0,143010323;-0,613438995;0,650317709
15,67581992;-0,47466783;0,433412873;-0,836139559;1,05464953
15,68583392;-0,574325618;0,581525331;-0,617119233;1,024137576
15,69584792;-0,497018849;0,515728514;-0,190275999;0,741086089
15,70586192;-0,265815703;0,365634873;0,400789211;0,604134786
15,71587592;-0,04263088;0,218654729;0,794246013;0,824896364
15,72588992;-0,02551893;0,142291116;0,994691489;1,005141351
15,73590392;-0,212518551;0,077760074;0,942527309;0,969313413
15,74591792;-0,39170801;0,05945902;0,723770108;0,825114361
15,75593192;-0,542187603;0,193670307;0,547522164;0,794516271
15,76594592;-0,757905422;0,295599702;0,335855881;0,880113052
15,77596092;-0,945952462;0,423376713;0,008921682;1,036413767
15,78597492;-1,034439107;0,468667345;-0,141331295;1,144415956
15,79598892;-0,718537142;0,518506087;-0,231742113;0,91588678
15,80600292;-0,219377701;0,42637955;-0,251297541;0,54136545
15,81601692;0,129674652;0,249015227;-0,19682488;0,342876263
15,82603092;0,383970609;0,134666054;-0,0330432;0,408240404
15,83604492;0,42089234;0,153670967;0,225861568;0,501775424
15,84605892;0,108070579;0,183766732;0,536618861;0,577416023
15,85607292;-0,320757383;0,232630159;0,739247687;0,83874265
15,86608692;-0,69858805;0,323500276;0,748302686;1,073608216
15,87610192;-0,881011677;0,358248232;0,64651611;1,150002805
15,88611592;-0,869016552;0,397863703;0,490055144;1,074076039
15,89612992;-0,608438091;0,458936554;0,347042774;0,837411702
15,90614392;-0,216612662;0,434247856;0,267772071;0,554250961
15,91615792;0,144406017;0,374849208;0,284792731;0,492414385
15,92617192;0,443459267;0,369871912;0,348859504;0,674658659
15,93618592;0,572777604;0,336555354;0,394783536;0,772785695
15,94619992;0,524966603;0,32028533;0,299612499;0,684061603
15,95621392;0,259045614;0,358747292;0,039445317;0,444252386
15,96622792;-0,059653879;0,399977033;-0,143750288;0,429190351
15,97624292;-0,361629786;0,429963309;-0,247062403;0,613746185
15,98625692;-0,500214352;0,386919031;-0,297510425;0,698879952
15,99627092;-0,403061366;0,274917807;-0,309907692;0,577997442
16,00628492;-0,187295271;0,062639175;-0,170124739;0,26066379
16,01629892;0,081132127;-0,121135743;0,213372501;0,258426226
16,02631292;0,20055164;-0,218490568;0,587446952;0,658067634
16,03632692;0,171409629;-0,184195479;0,528298858;0,585157174
16,04634092;-0,073875623;-0,105436554;0,017865583;0,129975589
16,05635492;-0,266788314;-0,022714825;-0,569301288;0,629123139
16,06636892;-0,322720805;0,044792596;-0,923301079;0,979101618
16,07638292;-0,322081961;0,103393098;-0,910007434;0,970845226
16,08639792;-0,265865185;0,048806124;-0,631941925;0,687325927
16,09641192;-0,329961741;0,020078169;-0,33314862;0,469324927
16,10642592;-0,370804031;0,016534318;-0,107429139;0,386406564
16,11643992;-0,312565069;-0,003900385;-0,083813404;0,323630688
16,12645392;-0,175044404;-0,114882146;-0,135462445;0,249376272
16,13646792;-0,091351671;-0,209644023;-0,109106705;0,253377224
16,14648192;-0,057171005;-0,302780229;-0,120710505;0,330931136
16,15649592;-0,109077506;-0,268299198;-0,306102909;0,421404025
16,16650992;-0,264577555;-0,087697856;-0,663896374;0,720035132
16,17652392;-0,51721758;0,070773529;-1,01415804;1,140631162
16,18653792;-0,668763596;0,192303082;-1,175573351;1,36608855
16,19655292;-0,690470068;0,164324009;-1,130241058;1,334614605
16,20656692;-0,588039714;0,002221503;-0,827554677;1,015205587
16,21658092;-0,337859283;-0,143374313;-0,274730843;0,458456241
16,22659492;-0,184275787;-0,282046733;0,252872196;0,421250843
16,23660892;-0,156791334;-0,364442041;0,679240637;0,786618946
16,24662292;-0,180625023;-0,443618165;0,680969658;0,832551591
16,25663692;-0,214589653;-0,464341867;0,380461366;0,637505246
16,26665092;-0,327535293;-0,355194377;-0,050093096;0,485748631
16,27666492;-0,42450062;-0,173095125;-0,256151315;0,525143976
16,28667892;-0,474256333;0,028975585;-0,323463292;0,574793141
16,29669392;-0,464566108;0,209851161;-0,514126377;0,724006291
16,30670792;-0,412447536;0,311992371;-0,860972099;1,004353108
16,31672192;-0,341150425;0,357884827;-1,279615198;1,371816394
16,32673592;-0,203429932;0,236159977;-1,448396248;1,481555589
16,33674992;-0,024736819;0,179846759;-0,875505939;0,894129418
16,34676392;0,017823026;0,070317592;-0,096084956;0,120393284
16,35677792;-0,042773552;-0,122894878;0,646481611;0,659447649
16,36679192;-0,251369626;-0,131508704;1,251868406;1,283610429
16,37680592;-0,446901742;-0,033056064;1,433277687;1,501698638
16,38681992;-0,55932835;-0,066078799;1,011278871;1,157540308
16,39683392;-0,579514656;-0,08907853;0,304948668;0,660882676
16,40684892;-0,657099424;-0,093755571;-0,091242877;0,669996285
16,41686292;-0,749860384;0,005863295;-0,02405603;0,750269062
16,42687292;-0,756510349;0,120767369;0,252697949;0,806690101
16,43688692;-0,730582333;0,220200879;0,374090824;0,84981346
16,44690092;-0,76431492;0,256927971;0,273688869;0,85152503
16,45691492;-0,830593256;0,256487676;0,019872347;0,869520555
16,46692892;-0,847917752;0,203339117;-0,105304846;0,87829404
16,47694292;-0,865889242;0,077418889;0,05484279;0,871071522
16,48695692;-0,768676285;-0,007763494;0,376921461;0,856150274
16,49697092;-0,59254514;-0,097797167;0,548622025;0,813424954
16,50698492;-0,47930354;-0,074164329;0,516869305;0,708792007
16,51699992;-0,540362797;0,019799403;0,345278084;0,641561317
16,52701392;-0,666131545;0,113961502;-0,000540867;0,675809701
16,53702792;-0,689762921;0,256865406;-0,418727299;0,846808877
16,54704192;-0,603949842;0,383119217;-0,747145522;1,034293081
16,55705592;-0,408280298;0,417345748;-0,93187836;1,099667019
16,56706992;-0,209577603;0,420170538;-0,879917663;0,99735708
16,57708392;-0,076838078;0,397764885;-0,588226386;0,714234748
16,58709792;0,022689138;0,366144312;-0,219017987;0,427253242
16,59711192;0,065802779;0,316448972;0,191876966;0,375881268
16,60712592;0,091492918;0,24142174;0,435229896;0,506043944
16,61713992;0,027142403;0,178534205;0,28468982;0,337134196
16,62715492;-0,06883017;0,176699933;-0,122726625;0,225881126
16,63716892;-0,246854151;0,283070434;-0,468115221;0,60016473
16,64718292;-0,525935779;0,410968336;-0,479057701;0,821583652
16,65719692;-0,584682316;0,568935545;-0,249065659;0,852979934
16,66721092;-0,527668601;0,595609081;0,071769894;0,798958852
16,67722492;-0,444843047;0,549615029;0,312289263;0,772972574
16,68723892;-0,227246006;0,527540328;0,149967048;0,593657865
16,69725292;0,082152622;0,522441263;-0,274409246;0,595814032
16,70726692;0,268624943;0,463825996;-0,880985364;1,031227001
16,71728092;0,448866151;0,480889779;-1,282000278;1,440923493
16,72729592;0,397678054;0,528830808;-1,419882885;1,566485642
16,73730992;0,195170612;0,537186041;-1,30125165;1,421237583
16,74732392;-0,037516412;0,496441034;-0,907698954;1,035267392
16,75733792;-0,39092441;0,44927637;-0,183842892;0,623273102
16,76735192;-0,653287697;0,384095702;0,480248778;0,897191848
16,77736592;-0,666362802;0,255092238;0,736479616;1,0254334
16,78737992;-0,405341853;0,146544673;0,694849194;0,817675218
16,79739392;0,036936404;-0,039437715;0,513444006;0,516279362
16,80740792;0,400788334;-0,049286912;0,315579491;0,512494784
16,81742192;0,451390942;0,047037195;0,0690907;0,459064053
16,82743592;0,198126726;0,042102145;-0,30246828;0,364024519
16,83745092;-0,16650281;0,121357499;-0,574686574;0,610504288
16,84746492;-0,553712465;0,203522573;-0,580047301;0,82732932
16,85747892;-0,83845893;0,312634395;-0,510333872;1,030142856
16,86749292;-0,982240355;0,425134824;-0,342980129;1,12390885
16,87750692;-0,74163167;0,411944236;-0,123549328;0,85730976
16,88752092;-0,300297592;0,134999053;0,009909276;0,329395783
16,89753492;0,182320679;-0,152574614;0,23310393;0,332952376
16,90754892;0,628048702;-0,259745306;0,51300605;0,851520994
16,91756292;0,928841462;-0,313214;0,677986409;1,191853616
16,92757692;1,006974077;-0,382556423;0,695811646;1,282380621
16,93759192;0,807767334;-0,410824641;0,667397686;1,125470845
16,94760592;0,593105742;-0,159712602;0,689483789;0,923401555
16,95761992;0,239826108;0,003570456;0,753779188;0,791019832
16,96763392;-0,034969492;0,026304869;0,982146873;0,983121199
16,97764792;-0,048857251;0,090394299;0,996420511;1,001704545
16,98766192;-0,063990247;0,079404896;0,7835421;0,790150689
16,99767592;-0,089656417;0,101953806;0,386643042;0,409787376
17,00768992;-0,133417454;0,160808371;-0,225404901;0,307354711
17,01770392;-0,192062086;0,192052237;-0,786061665;0,831663903
17,02771792;-0,16251859;0,296152556;-0,828665648;0,894877301
17,03773192;-0,195154532;0,38557534;-0,424541185;0,605796049
17,04774692;-0,286655654;0,404206762;0,020144243;0,495943909
17,05776092;-0,410768361;0,370417019;0,441185285;0,707519519
17,06777492;-0,475453294;0,396163771;0,731481416;0,958157936
17,07778892;-0,440943393;0,370421989;0,851873247;1,028266286
17,08780292;-0,262993983;0,312651352;0,673976389;0,788137599
17,09781692;-0,117401163;0,228923609;0,119560357;0,283696547
17,10783092;-0,064491682;0,250786641;-0,571169474;0,627126529
17,11784492;-0,016268489;0,344589136;-1,104682294;1,157293958
17,12785892;-0,078615687;0,459610008;-1,538857936;1,607950725
17,13787292;-0,322097748;0,542681254;-1,874264751;1,977654737
17,14788692;-0,620357129;0,608717807;-1,86544715;2,057977989
17,15790192;-0,655824146;0,61726556;-1,165510293;1,472934596
17,16791592;-0,455537678;0,38500816;-0,31389257;0,673998816
17,17792992;-0,160568671;0,047971873;0,442213225;0,472901824
17,18794392;0,0851765;-0,148226186;0,891688108;0,907928257
17,19795792;0,122281651;-0,23737342;1,055556911;1,088806381
17,20797192;-0,049033837;-0,283625189;1,151309745;1,186744157
17,21798592;-0,344672971;-0,135806554;1,022184513;1,087246087
17,22799992;-0,638399151;0,110944193;0,62683906;0,901548278
17,23801392;-0,754184985;0,321325258;0,217174945;0,84806242
17,24802792;-0,574353758;0,489731939;-0,175780166;0,774995663
17,25804292;-0,228001978;0,553746817;-0,6110469;0,855569257
17,26805692;0,238002873;0,511660606;-0,833878441;1,006873973
17,27807092;0,577074759;0,417039354;-0,809524203;1,078084661
17,28808492;0,708061709;0,282669023;-0,558063524;0,944821707
17,29809892;0,673623217;0,246892395;-0,039986769;0,718556215
17,30811292;0,477544478;0,21537561;0,382477486;0,648632723
17,31812692;0,208437231;0,11958053;0,426969534;0,489947513
17,32814092;0,030007253;0,030533283;0,38607937;0,388445616
17,33815492;-0,037929024;-0,046526441;0,354331913;0,359380613
17,34816892;-0,121043028;-0,112091416;0,364597285;0,400183808
17,35818292;-0,14667068;-0,126072255;0,459351414;0,498407689
17,36819792;-0,080334494;-0,125203944;0,437613221;0,462206652
17,37821192;0,031443;-0,161696124;0,186529688;0,248852613
17,38822592;0,102053428;-0,229799376;0,016886759;0,252007575
17,39823992;0,075222456;-0,295352949;0,211837606;0,37116971
17,40825392;0,03822588;-0,313726509;0,730733557;0,796151412
17,41826792;0,004778089;-0,353598818;1,401126772;1,445064422
17,42828242;-0,014058461;-0,421564514;1,778132433;1,827476191
17,43829642;-0,056135646;-0,465563204;1,789270794;1,849700052
17,44831042;-0,111854348;-0,373970079;1,679065982;1,72384094
17,45832442;-0,00771679;-0,204098963;1,299872292;1,315820623
17,46833842;0,207869905;-0,104197821;0,767277485;0,801736754
17,47835342;0,405964399;0,071559833;0,417590016;0,586778769
17,48836742;0,567178639;0,242911465;0,177493985;0,642029363
17,49838142;0,707671407;0,25973098;-0,000856032;0,753830044
17,50839542;0,856795945;0,311267024;-0,082037605;0,915268605
17,51840942;1,009203548;0,389079138;-0,121523852;1,0884128
17,52842342;1,111545317;0,410657849;-0,175505347;1,197904415
17,53843742;1,212118742;0,390313485;-0,491939701;1,365130444
17,54845142;1,167087433;0,31220287;-0,983939044;1,558107748
17,55846542;1,137608696;0,267844284;-1,123702701;1,621296354
17,56847942;1,102044834;0,145984071;-0,859453577;1,405159997
17,57849342;0,930382496;-0,023166668;-0,120887091;0,938489197
17,58850842;0,609109936;-0,137609981;0,800722389;1,015434767
17,59852242;0,211999099;-0,184243426;1,444059368;1,471120905
17,60853642;-0,205826047;-0,171786664;1,63766711;1,659466355
17,61855042;-0,541713175;-0,216156214;1,53019821;1,637584573
17,62856442;-0,637730449;-0,204027188;1,356724185;1,512953315
17,63857842;-0,594002229;-0,166525778;1,094178355;1,256103402
17,64859242;-0,533525392;-0,116933057;0,596080366;0,808476646
17,65860642;-0,518387206;0,063520935;-0,138357401;0,54028046
17,66862042;-0,526264721;0,278817754;-0,983814499;1,150036897
17,67863442;-0,40871449;0,447991444;-1,733405911;1,836420409
17,68864842;-0,02964034;0,564126648;-1,998470721;2,076776986
17,69866342;0,406957877;0,553872094;-1,578289804;1,721449307
17,70867742;0,646633931;0,452289878;-0,732758448;1,076864206
17,71869142;0,703111018;0,375491378;0,06902755;0,800077297
17,72870542;0,681633902;0,208746476;0,487145569;0,8634296
17,73871942;0,554239263;0,092567271;0,555788957;0,7903488
17,74873342;0,292845773;0,115011516;0,26313406;0,410153421
17,75874742;0,01029797;0,072511029;-0,290151705;0,29925225
17,76876142;-0,237624229;0,123632797;-0,878655249;0,918577917
17,77877542;-0,463640457;0,204348931;-1,347227722;1,439355236
17,78878942;-0,645561844;0,189913179;-1,512568855;1,655500423
17,79880442;-0,665416796;0,150324898;-1,488635616;1,637502087
17,80881842;-0,557228652;0,062555706;-1,081177656;1,217933541
17,81883242;-0,384263371;-0,156204565;-0,404106336;0,579102872
17,82884642;-0,163863029;-0,356298478;0,263547458;0,472500752
17,83886042;-0,041168711;-0,509345401;0,683159441;0,853132124
17,84887442;-0,032442289;-0,493909775;0,814353418;0,952979988
17,85888842;-0,180255479;-0,327521845;0,708705341;0,80126516
17,86890242;-0,412336804;-0,046106903;0,105383783;0,428080866
17,87891642;-0,570534466;0,292042986;-0,688602029;0,940729205
17,88893042;-0,553681694;0,605209478;-1,46593731;1,679825624
17,89894442;-0,278758149;0,790915439;-2,005178647;2,173475269
17,90895942;0,160896262;0,740508201;-2,052400761;2,187827435
17,91897342;0,607565102;0,699644057;-1,466426722;1,734659762
17,92898742;0,894179168;0,571398538;-0,509171446;1,176991179
17,93900142;0,979133437;0,347984322;0,324820431;1,088716533
17,94901542;0,948801371;0,190599496;0,628525981;1,153948491
17,95902942;0,725160576;0,06285713;0,53915129;0,905810683
17,96904342;0,387347778;-0,0183433;0,127878606;0,408323053
17,97905742;0,116960539;-0,114664922;-0,353684042;0,389769436
17,98907142;-0,040902187;-0,184267108;-0,635150877;0,662603948
17,99908542;-0,112447146;-0,205700661;-0,700302308;0,738498778
18,00909942;-0,093302047;-0,235201911;-0,455559495;0,521113869
18,01911342;-0,084086177;-0,170616783;0,005015157;0,190278016
18,02912842;-0,098379842;-0,091270212;0,308816017;0,336713791
18,03914242;-0,147035802;-0,088640866;0,246047326;0,300026694
18,04915642;-0,154443128;-0,067752419;0,087839797;0,190154937
18,05917042;-0,188607496;-0,097069481;-0,064697102;0,221767866
18,06918442;-0,245932538;-0,098069209;-0,093661285;0,280843051
18,07919842;-0,23298768;-0,091887532;0,070499294;0,260185949
18,08921242;-0,143169404;-0,114775873;0,274021575;0,329785996
18,09922642;0,040716538;-0,156618987;0,398628665;0,430223379
18,10924042;0,317039943;-0,245600014;0,714498178;0,81935422
18,11925442;0,577074504;-0,321480355;1,20043045;1,370181691
18,12926942;0,759825501;-0,371564973;1,644003738;1,848822223
18,13928342;0,739740827;-0,399113106;1,886998233;2,065737179
18,14929742;0,525564517;-0,338908128;1,606660495;1,724075035
18,15931142;0,238750476;-0,192095945;0,749280925;0,809521183
18,16932542;-0,093647252;-0,036468353;-0,330892764;0,345817539
18,17933942;-0,317246532;0,053982226;-1,038039238;1,086777301
18,18935342;-0,307993496;0,046131316;-1,116119447;1,158753948
18,19936742;-0,112393571;-0,077930959;-0,50232728;0,520613336
18,20938142;0,11339615;-0,310063082;0,816867136;0,8810617
18,21939542;0,27849422;-0,501158714;2,127155659;2,203068379
18,22940942;0,403686323;-0,645543133;2,902112877;3,000324605
18,23942442;0,470418001;-0,698896052;3,112923712;3,224909739
18,24943842;0,517063031;-0,626370551;2,818442729;2,93314058
18,25945242;0,360701906;-0,403798334;2,066432324;2,136188547
18,26946642;0,053662347;-0,039892483;1,110692647;1,11270356
18,27948042;-0,173815904;0,33530595;0,216500761;0,435332779
18,28949442;-0,238174708;0,6485372;-0,45137055;0,825265451
18,29950842;-0,173015676;0,879268914;-1,042912892;1,375032926
18,30952242;0,007249013;1,030200753;-1,519736956;1,836019214
18,31953642;0,275522483;1,140412874;-1,563943076;1,955088772
18,32955042;0,521612823;1,104033399;-0,81848623;1,469996392
18,33956442;0,662125179;0,896279634;0,309741631;1,156575468
18,34957942;0,707046121;0,709036294;0,952052423;1,381683936
18,35959342;0,657576849;0,554391181;1,125296652;1,416350751
18,36960742;0,558840839;0,42383148;0,856458049;1,107003431
18,37962142;0,42461296;0,26083742;0,230314808;0,548978357
18,38963542;0,323589409;0,148110265;-0,704680118;0,789443364
18,39964942;0,265581595;0,119716478;-1,440806562;1,469962301
18,40966342;0,210476521;0,130987132;-1,482586087;1,503169817
18,41967742;0,002334391;0,129024222;-1,306879596;1,313235309
18,42969067;-0,1542433;0,04309281;-1,013208452;1,025787187
18,43970467;-0,118239617;-0,064333698;-0,381927263;0,404954153
18,44971867;0,068360273;-0,221704637;0,116223936;0,259488104
18,45973367;0,263900886;-0,39400454;0,538525053;0,717560094
18,46974767;0,384867973;-0,456575741;0,72728253;0,941023189
18,47976167;0,386414343;-0,461210683;0,461206151;0,758117703
18,48977567;0,318100957;-0,422851486;-0,248140045;0,584435694
18,49978967;0,181257071;-0,324797042;-1,046242297;1,110391907
18,50980367;0,00701516;-0,159066778;-1,39702378;1,406067884
18,51981767;-0,054165792;0,004622224;-1,141029755;1,142324035
18,52983167;0,008041493;0,094560879;-0,421890643;0,432432815
18,53984567;0,172335462;0,068457885;0,443358695;0,480575619
18,54985967;0,409334478;-0,10087441;0,586098;0,721970378
18,55987367;0,562133113;-0,212351723;0,53708196;0,805942879
18,56988867;0,450707;-0,27773178;0,428429584;0,681045997
18,57990267;0,23073314;-0,2745354;0,215959309;0,418623805
18,58991667;-0,057425907;-0,079120283;-0,175139896;0,200578506
18,59993067;-0,350414388;0,047965441;-0,567621383;0,668793661
18,60994467;-0,455952245;0,097512407;-0,830099385;0,952085138
18,61995867;-0,31573214;0,038781073;-0,860822411;0,91771781
18,62997267;0,022786746;-0,119731681;-0,590759985;0,603201683
18,63998667;0,297233231;-0,259824536;-0,01920518;0,395253364
18,65000067;0,427598731;-0,390210282;0,756470661;0,952550576
18,66001467;0,423448085;-0,465783205;1,505777314;1,632062374
18,67002867;0,258545421;-0,443669913;1,802885451;1,874589202
18,68004367;-0,039056623;-0,288384237;1,48798833;1,516179461
18,69005767;-0,261020401;-0,067173837;0,900696328;0,940158417
18,70007167;-0,420446051;0,202777346;0,122569335;0,482614521
18,71008567;-0,621710905;0,422586023;-0,752570568;1,063703839
18,72009967;-0,670569947;0,569944774;-1,392764084;1,647511121
18,73011367;-0,570071805;0,627088297;-1,538714679;1,756662876
18,74012767;-0,374220742;0,654709813;-1,277471609;1,483448622
18,75014167;-0,177118302;0,592834431;-0,756285889;0,977134536
18,76015567;-0,022321234;0,437643626;-0,283711581;0,522036821
18,77016967;0,083463266;0,202810529;-0,015452437;0,219856783
18,78018367;0,147486148;-0,010006633;0,069005916;0,163138324
18,79019867;0,183279659;-0,126340935;-0,110445133;0,248498677
18,80021267;0,177111614;-0,224069251;-0,435999389;0,521220702
18,81022667;0,243933741;-0,376504555;-0,876656671;0,984777268
18,82024067;0,260841147;-0,458096748;-1,049320856;1,174293402
18,83025467;0,157088993;-0,428573133;-0,722608266;0,854701461
18,84026867;-0,014518308;-0,308863379;-0,083040403;0,320161017
18,85028267;-0,096609926;-0,177760618;0,436909216;0,481478949
18,86029667;-0,079373796;-0,102748735;0,548648338;0,563801827
18,87031067;0,049070053;-0,161395724;0,205570561;0,265924247
18,88032467;0,323412714;-0,175505347;-0,346164522;0,505200739
18,89033867;0,490052111;-0,174355492;-0,880001863;1,022230007
18,90035367;0,556209701;-0,125668505;-1,197919071;1,326714704
18,91036767;0,52858592;0,028544645;-1,13614733;1,253414787
18,92038167;0,467964911;0,165946319;-0,854295748;0,988104531
18,93039567;0,360202116;0,251667378;-0,645120379;0,780552584
18,94040967;0,25991937;0,312017221;-0,508558073;0,650802688
18,95042367;0,196186766;0,327871216;-0,354971014;0,521529675
18,96043767;0,259151704;0,210836125;-0,317095674;0,460609535
18,97045167;0,364882483;0,030469987;-0,285782665;0,464477532
18,98046567;0,50109677;-0,073077332;-0,215793248;0,550458895
18,99047967;0,46503319;-0,165575752;-0,178759323;0,525001041
19,00049367;0,339085408;-0,251249886;-0,021439986;0,42256963
19,01050767;0,160907298;-0,238896474;0,153970637;0,326603186
19,02052267;-0,154526707;-0,181305054;0,213981196;0,320215518
19,03053667;-0,317875985;-0,139306405;0,347529262;0,491149676
19,04055067;-0,244929741;-0,148340937;0,669565834;0,728226625
19,05056467;-0,016645927;-0,199127952;0,80143458;0,825969984
19,06057867;0,251276455;-0,202328864;0,696067754;0,767194333
19,07059267;0,517485894;-0,139535615;0,384100088;0,659389654
19,08060667;0,634423044;-0,113184115;-0,01281008;0,644567562
19,09062067;0,637584415;-0,001660902;-0,333677208;0,719622904
19,10063467;0,496051244;0,121105484;-0,444733375;0,677141898
19,11064867;0,38488197;0,175907343;-0,186557754;0,462473048
19,12066267;0,319004096;0,151976882;0,414875738;0,544960975
19,13067767;0,337564876;0,053705799;1,031521931;1,086679278
19,14069167;0,398480328;-0,0503666;1,059672766;1,133238606
19,15070567;0,446060474;-0,132578306;0,694091395;0,835649339
19,16071967;0,553597348;-0,181063126;0,309244033;0,65945868
19,17073367;0,530804865;-0,22136082;-0,002755793;0,575119128
19,18074767;0,328463502;-0,17284121;-0,353115107;0,512301313
19,19076167;0,087297395;0,007336648;-0,455440212;0,463789228
19,20077567;-0,109341507;0,106340972;0,181632645;0,237180069
19,21078967;-0,166606214;-0,039074019;1,184592682;1,196889398
19,22080367;-0,140727388;-0,214222247;1,904013045;1,921187405
19,23081767;0,010727083;-0,331957104;2,2049897;2,229863262
19,24083267;0,204863303;-0,391634664;1,871913001;1,923383728
19,25084667;0,173806293;-0,327901475;1,137981017;1,196966499
19,26086067;-0,051466352;-0,235848467;0,159008598;0,289062309
19,27087467;-0,237526727;-0,014799303;-0,824540437;0,858198636
19,28088867;-0,350786235;0,247965067;-1,279161454;1,349367142
19,29090267;-0,424022793;0,310726595;-1,338313057;1,437855412
19,30091667;-0,331536324;0,275867103;-1,169722043;1,246703112
19,31093067;0,061358324;0,282929662;-0,806188366;0,856594256
19,32094467;0,424577475;0,115971483;-0,452535315;0,631271438
19,33095867;0,663969318;-0,127124169;-0,1968892;0,704117296
19,34097267;0,762862033;-0,250505097;-0,082400717;0,80715622
19,35098667;0,602633706;-0,344617934;0,1041202;0,701975726
19,36100167;0,237520734;-0,413247142;0,320775327;0,574531209
19,37101567;-0,133722752;-0,377525479;0,583235788;0,707510597
19,38102967;-0,531947118;-0,25351846;0,693523046;0,910062394
19,39104367;-0,76687907;-0,200528507;0,738096371;1,083098076
